EncodingTrials.thisRepN,EncodingTrials.thisTrialN,EncodingTrials.thisN,EncodingTrials.thisIndex,RetrievalTrials.thisRepN,RetrievalTrials.thisTrialN,RetrievalTrials.thisN,RetrievalTrials.thisIndex,EncodingBlock2.thisRepN,EncodingBlock2.thisTrialN,EncodingBlock2.thisN,EncodingBlock2.thisIndex,RetrievalBlock2.thisRepN,RetrievalBlock2.thisTrialN,RetrievalBlock2.thisN,RetrievalBlock2.thisIndex,Instructions.started,Instructions.stopped,fixation.started,fixation.stopped,trialOrder,triplet1,triplet2,triplet3,Triplet1.started,Triplet1.stopped,Triplet2.started,Triplet2.stopped,Triplet3.started,Triplet3.stopped,sound_pop.started,sound_pop.stopped,sound_pop2.started,sound_pop2.stopped,sound_pop3.started,sound_pop3.stopped,Mask.started,Mask.stopped,encodingType,nextTrial,img1.started,img1.stopped,img2.started,img2.stopped,img3.started,img3.stopped,sound_pop4.started,sound_pop4.stopped,sound_pop5.started,sound_pop5.stopped,sound_pop6.started,sound_pop6.stopped,text_2.started,text_2.stopped,methodCheck,Method Clicked,text.started,text.stopped,sameText.started,sameText.stopped,diffText.started,diffText.stopped,leftCL.started,leftCL.stopped,rightCL.started,rightCL.stopped,MethodMouse.x,MethodMouse.y,MethodMouse.leftButton,MethodMouse.midButton,MethodMouse.rightButton,MethodMouse.time,MethodMouse.clicked_name,MethodMouse.started,MethodMouse.stopped,clickedSound.started,clickedSound.stopped,encodingTrials,BlockBreak.started,BlockBreak.stopped,text_4.started,text_4.stopped,start2.keys,start2.rt,start2.started,start2.stopped,retType,retIMG.started,retIMG.stopped,sound_pop7.started,sound_pop7.stopped,question_text.started,question_text.stopped,retTrials,decisionQ_2.started,decisionQ_2.stopped,first_left.started,first_left.stopped,second_middle.started,second_middle.stopped,third_right.started,third_right.stopped,First.started,First.stopped,Second.started,Second.stopped,Third.started,Third.stopped,Order_Position_Response.x,Order_Position_Response.y,Order_Position_Response.leftButton,Order_Position_Response.midButton,Order_Position_Response.rightButton,Order_Position_Response.clicked_name,Order_Position_Response.started,Order_Position_Response.stopped,retrievalTrials,retIMG,Trial_Order,participant,date,expName,psychopyVersion,frameRate,
0,0,0,0,,,,,,,,,,,,,269.34508519999997,None,276.8670006,None,MLR,images/OBJ_53.png,images/OBJ_154.png,images/OBJ_79.png,278.50751579999996,280.0149230999999,280.49800359999995,281.9972065999999,282.49706549999996,None,278.5150906199999,None,280.4981534799999,None,282.4971108799999,None,283.9966622999999,None,same,None,285.61881959999994,287.12907729999995,287.612698,289.11173929999995,289.612131,None,285.63001211999995,None,287.61225607999995,None,289.6116420799999,None,291.11123109999994,None,0,['leftCL'],292.11097029999996,None,292.11097029999996,None,292.11097029999996,None,292.11097029999996,None,292.11097029999996,None,-0.2177734375,-0.27734375,1,0,0,3.378678599999944,leftCL,0.012555180000049404,None,295.49329167999997,None,,,,,,,,,,,,,,,,,,,,,,,,,,,,,,,,,,,,,,,,,,,FQ_1001,2023-10-23_10h52.37.821,exp,2021.1.4,60.13453297715404,
1,0,1,0,,,,,,,,,,,,,,,296.1633713,None,LMR,images/OBJ_179.png,images/OBJ_173.png,images/OBJ_91.png,297.71425339999996,299.22600339999997,299.7091855,301.20828989999995,301.70810059999997,None,297.7265160199999,None,299.70919868,None,301.70821567999997,None,303.20816319999994,None,diff,RML,304.75825869999994,306.25728559999993,306.7571317999999,308.2566865,308.7565437999999,None,304.75724463999995,None,306.7571886799999,None,308.75657567999997,None,310.2556953999999,None,1,['rightCL'],311.25568179999993,None,311.25568179999993,None,311.25568179999993,None,311.25568179999993,None,311.25568179999993,None,0.19921875,-0.2158203125,1,0,0,1.7492341000000806,rightCL,0.01638937999996415,None,313.00489617999995,None,,,,,,,,,,,,,,,,,,,,,,,,,,,,,,,,,,,,,,,,,,,FQ_1001,2023-10-23_10h52.37.821,exp,2021.1.4,60.13453297715404,
2,0,2,0,,,,,,,,,,,,,,,313.6740744,None,RML,images/OBJ_161.png,images/OBJ_145.png,images/OBJ_43.png,315.2336689,316.73705699999994,317.2202506,318.7198201,319.219661,None,315.23759082,None,317.2203026799999,None,319.2202017799999,None,320.7192454,None,same,RML,322.26046629999996,323.7683224,324.2520435,325.7511041,326.2514546,None,322.26876242,None,324.25155048,None,326.2509590799999,None,327.75055669999995,None,0,['leftCL'],328.7502684,None,328.7502684,None,328.7502684,None,328.7502684,None,328.7502684,None,-0.2080078125,-0.3232421875,1,0,0,0.5827482999999347,leftCL,0.016384379999863086,None,329.3334550799999,None,,,,,,,,,,,,,,,,,,,,,,,,,,,,,,,,,,,,,,,,,,,FQ_1001,2023-10-23_10h52.37.821,exp,2021.1.4,60.13453297715404,
3,0,3,0,,,,,,,,,,,,,,,330.0029972,None,RLM,images/OBJ_110.png,images/OBJ_119.png,images/OBJ_111.png,331.5549919,333.06564449999996,333.54919369999993,335.04833229999997,335.54824439999993,None,331.56616452,None,333.54889477999996,None,335.5482708799999,None,337.0477635,None,diff,MLR,338.5837424,340.0969067,340.58061079999993,342.0796705,342.579518,None,338.5806964399999,None,340.58013447999997,None,342.57954227999994,None,344.0790697,None,1,['rightCL'],345.0792943,None,345.0792943,None,345.0792943,None,345.0792943,None,345.0792943,None,0.2373046875,-0.2880859375,1,0,0,1.7490331000000197,rightCL,0.016373780000094484,None,346.82833487999994,None,,,,,,,,,,,,,,,,,,,,,,,,,,,,,,,,,,,,,,,,,,,FQ_1001,2023-10-23_10h52.37.821,exp,2021.1.4,60.13453297715404,
4,0,4,0,,,,,,,,,,,,,,,347.49875729999997,None,RLM,images/OBJ_68.png,images/OBJ_155.png,images/OBJ_8.png,349.0631386,350.577679,351.06078149999996,352.559976,353.0598996,None,349.06157042,None,351.06091677999996,None,353.05981197999995,None,354.55987659999994,None,same,MLR,356.1055494,357.608973,358.09179929999993,359.59124969999993,360.1077963,None,356.10893422,None,358.09172358,None,360.1078018799999,None,361.6078361,None,0,['leftCL'],362.60752149999996,None,362.60752149999996,None,362.60752149999996,None,362.60752149999996,None,362.60752149999996,None,-0.197265625,-0.3232421875,1,0,0,1.2663516000000072,leftCL,0.016388580000011643,None,363.87384757999996,None,,,,,,,,,,,,,,,,,,,,,,,,,,,,,,,,,,,,,,,,,,,FQ_1001,2023-10-23_10h52.37.821,exp,2021.1.4,60.13453297715404,
5,0,5,0,,,,,,,,,,,,,,,364.55020879999995,None,LMR,images/OBJ_174.png,images/OBJ_181.png,images/OBJ_64.png,366.09379849999993,367.60605179999993,368.0892754,369.58869429999993,370.0887239,None,366.1065944199999,None,368.08927178,None,370.08869968,None,371.58809339999993,None,diff,RML,373.12040949999994,374.62038989999996,375.1200984999999,376.6201163999999,377.1194919999999,None,373.1210499399999,None,375.12056748,None,377.11953678,None,378.61951439999996,None,1,['rightCL'],379.6187467,None,379.6187467,None,379.6187467,None,379.6187467,None,379.6187467,None,0.2578125,-0.38671875,1,0,0,1.7500319999999192,rightCL,0.016378979999899457,None,381.36874307999994,None,,,,,,,,,,,,,,,,,,,,,,,,,,,,,,,,,,,,,,,,,,,FQ_1001,2023-10-23_10h52.37.821,exp,2021.1.4,60.13453297715404,
6,0,6,0,,,,,,,,,,,,,,,382.0377239999999,None,LMR,images/OBJ_41.png,images/OBJ_134.png,images/OBJ_126.png,383.5939028,385.10048199999994,385.58410419999996,387.0832376999999,387.583569,None,383.60105501999993,None,385.58368048,None,387.5830970799999,None,389.08268039999996,None,same,RML,390.6213008,392.1317636,392.61495489999993,394.1150054,394.6148564,None,390.63265062,None,392.61497118,None,394.6147513799999,None,396.11449129999994,None,0,['leftCL'],397.11414609999997,None,397.11414609999997,None,397.11414609999997,None,397.11414609999997,None,397.11414609999997,None,-0.2587890625,-0.2431640625,1,0,0,0.5671956999999566,leftCL,0.016385879999916142,None,397.68074077999995,None,,,,,,,,,,,,,,,,,,,,,,,,,,,,,,,,,,,,,,,,,,,FQ_1001,2023-10-23_10h52.37.821,exp,2021.1.4,60.13453297715404,
7,0,7,0,,,,,,,,,,,,,,,398.35023449999994,None,LMR,images/OBJ_12.png,images/OBJ_66.png,images/OBJ_202.png,399.89694969999994,401.4124157,401.8955978,403.3952133,403.89503219999995,None,399.89624303999994,None,401.89556687999993,None,403.89501078,None,405.3945933,None,diff,MLR,406.9257848,408.42704319999996,408.92691149999996,410.42691909999996,410.9267722999999,None,406.9273783399999,None,408.92724567999994,None,410.9268059799999,None,412.4263664,None,1,['rightCL'],413.4260626,None,413.4260626,None,413.4260626,None,413.4260626,None,413.4260626,None,0.392578125,-0.3984375,1,0,0,1.7500498000000562,rightCL,0.016386379999971723,None,416.19148778,None,,,,,,,,,,,,,,,,,,,,,,,,,,,,,,,,,,,,,,,,,,,FQ_1001,2023-10-23_10h52.37.821,exp,2021.1.4,60.13453297715404,
8,0,8,0,,,,,,,,,,,,,,,416.86676339999997,None,LMR,images/OBJ_97.png,images/OBJ_23.png,images/OBJ_38.png,418.4268168,419.94030439999995,420.4235189,421.9230648,422.42290219999995,None,418.4242019199999,None,420.42352908,None,422.42343868,None,423.9225086,None,diff,LRM,425.4630384999999,426.972088,427.45536359999994,428.9543635,429.4542260999999,None,425.47202102,None,427.45481778,None,429.4547408799999,None,430.9537864,None,1,['rightCL'],431.9535026,None,431.9535026,None,431.9535026,None,431.9535026,None,431.9535026,None,0.224609375,-0.32421875,1,0,0,0.4661961000000474,rightCL,0.01637597999990703,None,432.42006078,None,,,,,,,,,,,,,,,,,,,,,,,,,,,,,,,,,,,,,,,,,,,FQ_1001,2023-10-23_10h52.37.821,exp,2021.1.4,60.13453297715404,
9,0,9,0,,,,,,,,,,,,,,,433.0948608,None,LMR,images/OBJ_125.png,images/OBJ_139.png,images/OBJ_165.png,434.6461898,436.15223089999995,436.6355085,438.1350218,438.63489159999995,None,434.65330711999997,None,436.63552217999995,None,438.63491858,None,440.1349857,None,same,LRM,441.67305209999995,443.1835724,443.6667486,445.1667921999999,445.66663859999994,None,441.6844315199999,None,443.6667686799999,None,445.6666753799999,None,447.1662155,None,0,['leftCL'],448.1659598,None,448.1659598,None,448.1659598,None,448.1659598,None,448.1659598,None,-0.185546875,-0.3349609375,1,0,0,1.3334144999998898,leftCL,0.01637757999992573,None,449.49888397999996,None,,,,,,,,,,,,,,,,,,,,,,,,,,,,,,,,,,,,,,,,,,,FQ_1001,2023-10-23_10h52.37.821,exp,2021.1.4,60.13453297715404,
10,0,10,0,,,,,,,,,,,,,,,450.17487559999995,None,RML,images/OBJ_203.png,images/OBJ_72.png,images/OBJ_200.png,451.7237597999999,453.23110439999994,453.71430239999995,455.2134315999999,455.7132831,None,451.73150582,None,453.71433728,None,455.71340358,None,457.21316749999994,None,same,LRM,458.7511534,460.26224479999996,460.7455984999999,462.2446784,462.74453859999994,None,458.76278722,None,460.74561217999997,None,462.74453868,None,464.2440941,None,0,['leftCL'],465.2438126999999,None,465.2438126999999,None,465.2438126999999,None,465.2438126999999,None,465.2438126999999,None,-0.2744140625,-0.2841796875,1,0,0,0.5166080999999849,leftCL,0.016373479999970186,None,465.76036767999994,None,,,,,,,,,,,,,,,,,,,,,,,,,,,,,,,,,,,,,,,,,,,FQ_1001,2023-10-23_10h52.37.821,exp,2021.1.4,60.13453297715404,
11,0,11,0,,,,,,,,,,,,,,,466.44587149999995,None,RML,images/OBJ_149.png,images/OBJ_60.png,images/OBJ_105.png,468.0081384,469.5096959,470.0095539,471.509141,472.00893829999995,None,468.00974261999994,None,470.00958117999994,None,472.00900347999993,None,473.5085527,None,same,LRM,475.0517976,476.5576537999999,477.040849,478.5403961999999,479.0401519999999,None,475.05804392,None,477.0408689799999,None,479.04027497999994,None,480.5393738,None,0,['leftCL'],481.5390771,None,481.5390771,None,481.5390771,None,481.5390771,None,481.5390771,None,-0.2578125,-0.3212890625,1,0,0,0.3994596999999658,leftCL,0.016374380000115707,None,481.9390033799999,None,,,,,,,,,,,,,,,,,,,,,,,,,,,,,,,,,,,,,,,,,,,FQ_1001,2023-10-23_10h52.37.821,exp,2021.1.4,60.13453297715404,
12,0,12,0,,,,,,,,,,,,,,,482.61373059999994,None,RML,images/OBJ_123.png,images/OBJ_44.png,images/OBJ_136.png,484.1768351999999,485.68784059999996,486.1548538999999,487.6544216,488.1709361999999,None,484.18838339999996,None,486.15487978,None,488.1709576799999,None,489.67048449999993,None,same,LRM,491.22028049999994,492.73576619999994,493.21899800000006,494.7188853,495.2188716999999,None,491.21999732,None,493.21900807999987,None,495.2189146799999,None,496.71844209999995,None,0,['leftCL'],497.7177064,None,497.7177064,None,497.7177064,None,497.7177064,None,497.7177064,None,-0.1591796875,-0.23046875,1,0,0,3.5161788000000342,leftCL,0.016389079999953537,None,501.23386777999985,None,,,,,,,,,,,,,,,,,,,,,,,,,,,,,,,,,,,,,,,,,,,FQ_1001,2023-10-23_10h52.37.821,exp,2021.1.4,60.13453297715404,
13,0,13,0,,,,,,,,,,,,,,,501.91182349999985,None,LMR,images/OBJ_9.png,images/OBJ_58.png,images/OBJ_67.png,503.45505520000006,504.9655694999999,505.448793,506.9488114999999,507.4486594,None,503.46656072,None,505.44877808,None,507.44868597999994,None,508.94822929999987,None,same,LRM,510.4822804999999,511.99734650000005,512.4805293,513.9801038999999,514.4799287999999,None,510.48061564,None,512.4805593799999,None,514.4799344799999,None,515.9790396999999,None,0,['leftCL'],516.9787610000001,None,516.9787610000001,None,516.9787610000001,None,516.9787610000001,None,516.9787610000001,None,-0.4892578125,-0.32421875,1,0,0,0.5160514000001513,leftCL,0.016375680000010107,None,518.14556088,None,,,,,,,,,,,,,,,,,,,,,,,,,,,,,,,,,,,,,,,,,,,FQ_1001,2023-10-23_10h52.37.821,exp,2021.1.4,60.13453297715404,
14,0,14,0,,,,,,,,,,,,,,,518.8166819999999,None,MLR,images/OBJ_199.png,images/OBJ_70.png,images/OBJ_138.png,520.3730080999999,521.8772953999999,522.3609257999999,523.8605596,524.3604614999999,None,520.37830762,None,522.36098528,None,524.35994708,None,525.859829,None,same,LRM,527.3990378999999,528.9085513,529.3917735,530.8913281,531.3911831999999,None,527.4095184199998,None,529.3918263799999,None,531.3915821799999,None,532.8912422000001,None,0,['leftCL'],533.8904531000001,None,533.8904531000001,None,533.8904531000001,None,533.8904531000001,None,533.8904531000001,None,-0.2900390625,-0.2783203125,1,0,0,1.5824737000000368,leftCL,0.016382979999889358,None,535.47340248,None,,,,,,,,,,,,,,,,,,,,,,,,,,,,,,,,,,,,,,,,,,,FQ_1001,2023-10-23_10h52.37.821,exp,2021.1.4,60.13453297715404,
15,0,15,0,,,,,,,,,,,,,,,536.1457356999999,None,LMR,images/OBJ_112.png,images/OBJ_142.png,images/OBJ_172.png,537.7031927999999,539.2055906,539.7054229999999,541.2054917999999,541.7053449,None,537.70661292,None,539.70546958,None,541.70483958,None,543.2044235000001,None,same,LRM,544.7453624,546.253502,546.7367299,548.2367838999999,548.7361272,None,544.75390182,None,546.73674188,None,548.7366517799999,None,550.2357066,None,0,['leftCL'],551.2358952,None,551.2358952,None,551.2358952,None,551.2358952,None,551.2358952,None,-0.2255859375,-0.306640625,1,0,0,0.6998622999999498,leftCL,0.0163860800000748,None,551.93525858,None,,,,,,,,,,,,,,,,,,,,,,,,,,,,,,,,,,,,,,,,,,,FQ_1001,2023-10-23_10h52.37.821,exp,2021.1.4,60.13453297715404,
16,0,16,0,,,,,,,,,,,,,,,552.6025253,None,LMR,images/OBJ_54.png,images/OBJ_20.png,images/OBJ_50.png,554.1396628,555.6512736,556.1344712999999,557.6340384,558.1338940999999,None,554.1518164199999,None,556.1345048799999,None,558.13390948,None,559.6329971,None,same,LRM,561.1673595,562.6825707,563.1652976,564.6653446999999,565.1651916000001,None,561.16627864,None,563.16565758,None,565.16519588,None,566.6647556999999,None,0,['leftCL'],567.6644841,None,567.6644841,None,567.6644841,None,567.6644841,None,567.6644841,None,-0.1552734375,-0.3388671875,1,0,0,2.916362700000036,leftCL,0.016390580000006594,None,570.5803226799999,None,,,,,,,,,,,,,,,,,,,,,,,,,,,,,,,,,,,,,,,,,,,FQ_1001,2023-10-23_10h52.37.821,exp,2021.1.4,60.13453297715404,
17,0,17,0,,,,,,,,,,,,,,,571.2484296,None,RLM,images/OBJ_147.png,images/OBJ_96.png,images/OBJ_141.png,572.8120589,574.3120082,574.811878,576.3119282999999,576.8113375,None,572.8125655199999,None,574.8119059799999,None,576.8113719799999,None,578.3108788,None,same,LRM,579.8557736999999,581.3599589999999,581.8436664000001,583.3432201,583.8430452999999,None,579.86074162,None,581.8436922799999,None,583.84309528,None,585.3421986999999,None,0,['leftCL'],586.3419067,None,586.3419067,None,586.3419067,None,586.3419067,None,586.3419067,None,-0.2509765625,-0.328125,1,0,0,0.4164997000000312,leftCL,0.016335280000021157,None,586.75846348,None,,,,,,,,,,,,,,,,,,,,,,,,,,,,,,,,,,,,,,,,,,,FQ_1001,2023-10-23_10h52.37.821,exp,2021.1.4,60.13453297715404,
18,0,18,0,,,,,,,,,,,,,,,587.4341638999999,None,LMR,images/OBJ_146.png,images/OBJ_93.png,images/OBJ_95.png,588.9823472,590.4910858000001,590.9743169000001,592.4738967000001,592.9737421,None,588.99116312,None,590.9742212799999,None,592.9732337799999,None,594.4728405999999,None,same,LRM,596.0093391999999,597.5224659,598.0056325999999,599.5046588999999,600.0050028,None,596.00602314,None,598.00516008,None,600.0050352799999,None,601.5041570999999,None,0,['leftCL'],602.5042082,None,602.5042082,None,602.5042082,None,602.5042082,None,602.5042082,None,-0.298828125,-0.259765625,1,0,0,0.5499836999999843,leftCL,0.01638278000018545,None,603.05375108,None,,,,,,,,,,,,,,,,,,,,,,,,,,,,,,,,,,,,,,,,,,,FQ_1001,2023-10-23_10h52.37.821,exp,2021.1.4,60.13453297715404,
19,0,19,0,,,,,,,,,,,,,,,603.7348789999999,None,LMR,images/OBJ_205.png,images/OBJ_14.png,images/OBJ_113.png,605.2836803999999,606.7863740999999,607.2862266,608.7857351999999,609.2851917999999,None,605.28642472,None,607.2861167799999,None,609.28519188,None,610.7847749,None,same,LRM,612.3270872,613.8343402999999,614.3171090000001,615.8171072,616.3169501,None,612.3342345199999,None,614.3175470799999,None,616.31646178,None,617.8165076,None,0,['leftCL'],618.8157056,None,618.8157056,None,618.8157056,None,618.8157056,None,618.8157056,None,-0.2734375,-0.283203125,1,0,0,0.5499267000000145,leftCL,0.016364580000072237,None,619.36563548,None,,,,,,,,,,,,,,,,,,,,,,,,,,,,,,,,,,,,,,,,,,,FQ_1001,2023-10-23_10h52.37.821,exp,2021.1.4,60.13453297715404,
20,0,20,0,,,,,,,,,,,,,,,620.0436514,None,RML,images/OBJ_40.png,images/OBJ_77.png,images/OBJ_104.png,621.5888831,623.0978236999999,623.5815193999999,625.0810686,625.5804217,None,621.5983552199998,None,623.5815258799998,None,625.58043288,None,627.0799964999999,None,same,LRM,628.6153910999999,630.1296034,630.6122917999999,632.1118807999999,632.6121862,None,628.6132832399999,None,630.6123238799998,None,632.61172528,None,634.1112687,None,0,['leftCL'],635.1109904,None,635.1109904,None,635.1109904,None,635.1109904,None,635.1109904,None,-0.1396484375,-0.240234375,1,0,0,0.6832464000001437,leftCL,0.016375879999714016,None,635.7941464799999,None,,,,,,,,,,,,,,,,,,,,,,,,,,,,,,,,,,,,,,,,,,,FQ_1001,2023-10-23_10h52.37.821,exp,2021.1.4,60.13453297715404,
21,0,21,0,,,,,,,,,,,,,,,636.4690539000001,None,RLM,images/OBJ_51.png,images/OBJ_89.png,images/OBJ_116.png,638.0138731,639.5268667999999,640.0100367,641.5094571,642.0094445,None,638.0107006399999,None,640.01005188,None,642.0094733799999,None,643.5090178,None,same,LRM,645.0408027999999,646.5413732,647.0413271,648.5404168,649.0402735999999,None,645.0418468399998,None,647.04135318,None,649.0403159800001,None,650.5397811,None,0,['leftCL'],651.5395507000001,None,651.5395507000001,None,651.5395507000001,None,651.5395507000001,None,651.5395507000001,None,-0.2548828125,-0.3017578125,1,0,0,0.28333550000002106,leftCL,0.016387580000127855,None,651.8228148799999,None,,,,,,,,,,,,,,,,,,,,,,,,,,,,,,,,,,,,,,,,,,,FQ_1001,2023-10-23_10h52.37.821,exp,2021.1.4,60.13453297715404,
22,0,22,0,,,,,,,,,,,,,,,652.4984362,None,MLR,images/OBJ_120.png,images/OBJ_81.png,images/OBJ_186.png,654.0457675999999,655.5555128999999,656.038211,657.5382932,658.0381771,None,654.05601652,None,656.03875128,None,658.0380032799999,None,659.5375531,None,same,LRM,661.0720472999999,662.5866758,663.0700019999999,664.5696088,665.0694146000001,None,661.07006114,None,663.0698617799999,None,665.06896018,None,666.5689786999999,None,0,['leftCL'],667.5682102000001,None,667.5682102000001,None,667.5682102000001,None,667.5682102000001,None,667.5682102000001,None,-0.3076171875,-0.291015625,1,0,0,0.5498316000000614,leftCL,0.01637538000022687,None,668.7850464799999,None,,,,,,,,,,,,,,,,,,,,,,,,,,,,,,,,,,,,,,,,,,,FQ_1001,2023-10-23_10h52.37.821,exp,2021.1.4,60.13453297715404,
23,0,23,0,,,,,,,,,,,,,,,669.4554065,None,RML,images/OBJ_4.png,images/OBJ_187.png,images/OBJ_109.png,671.0074526000001,672.5167993,673.0004587999999,674.4996509999999,674.9993807000001,None,671.0172652199999,None,673.00045738,None,674.99944018,None,676.4994179,None,same,LRM,678.0352684,679.5480312,680.0312634,681.5311380999999,682.0311469999999,None,678.0322661399998,None,680.03173528,None,682.03119118,None,683.5307045,None,0,['leftCL'],684.5299542,None,684.5299542,None,684.5299542,None,684.5299542,None,684.5299542,None,-0.228515625,-0.2294921875,1,0,0,0.24945489999981874,leftCL,0.01632567999990897,None,684.77989548,None,,,,,,,,,,,,,,,,,,,,,,,,,,,,,,,,,,,,,,,,,,,FQ_1001,2023-10-23_10h52.37.821,exp,2021.1.4,60.13453297715404,
24,0,24,0,,,,,,,,,,,,,,,685.4520459999999,None,RML,images/OBJ_99.png,images/OBJ_74.png,images/OBJ_177.png,687.0075855,688.5125777000001,688.9956913999999,690.4953269,690.9950598,None,687.0130894199999,None,688.9958185799999,None,690.9952046799999,None,692.4942991,None,same,LRM,694.033173,695.5434151,696.0265956999999,697.5266374999999,698.0264003,None,694.04382932,None,696.0270852799999,None,698.02638048,None,699.5255921,None,0,['leftCL'],700.5252934999999,None,700.5252934999999,None,700.5252934999999,None,700.5252934999999,None,700.5252934999999,None,-0.2431640625,-0.2353515625,1,0,0,0.29947730000003503,leftCL,0.01639118000025519,None,700.82523358,None,,,,,,,,,,,,,,,,,,,,,,,,,,,,,,,,,,,,,,,,,,,FQ_1001,2023-10-23_10h52.37.821,exp,2021.1.4,60.13453297715404,
,,,,,,,,,,,,,,,,,,,,,,,,,,,,,,,,,,,,,,,,,,,,,,,,,,,,,,,,,,,,,,,,,,,,,,,,,,,,,25,701.3335663,None,None,None,space,446.8121449,None,None,,,,,,,,,,,,,,,,,,,,,,,,,,,,,,,,,,FQ_1001,2023-10-23_10h52.37.821,exp,2021.1.4,60.13453297715404,
,,,,0,0,0,0,,,,,,,,,,,,,,,,,,,,,,,,,,,,,,,,,,,,,,,,,,,,,,,,,,,,,,,,,,,,,,,,,,,,736.4148628799999,None,,,,,,,,,,old,716.1612923999999,None,716.1709903199998,None,717.6707802999999,None,1,718.6704901999999,None,719.6535121,None,719.6535121,None,719.6535121,None,719.6535121,None,719.6535121,None,719.6535121,None,0.0283203125,0.052734375,1,0,0,first_left,1.0157390799997756,None,,,,FQ_1001,2023-10-23_10h52.37.821,exp,2021.1.4,60.13453297715404,
,,,,1,0,1,0,,,,,,,,,,,,,,,,,,,,,,,,,,,,,,,,,,,,,,,,,,,,,,,,,,,,,,,,,,,,,,,,,,,,749.6610011799999,None,,,,,,,,,,old,737.1160103,None,737.1153648399999,None,738.6308615,None,2,739.6306199,None,740.5969163,None,740.5969163,None,740.5969163,None,740.5969163,None,740.5969163,None,740.5969163,None,0.0048828125,-0.111328125,1,0,0,second_middle,0.999175280000145,None,,,,FQ_1001,2023-10-23_10h52.37.821,exp,2021.1.4,60.13453297715404,
,,,,2,0,2,0,,,,,,,,,,,,,,,,,,,,,,,,,,,,,,,,,,,,,,,,,,,,,,,,,,,,,,,,,,,,,,,,,,,,759.4414454799999,None,,,,,,,,,,old,750.3562208000001,None,750.3610195399998,None,751.8603045,None,3,752.8600564999999,None,753.8269009,None,753.8269009,None,753.8269009,None,753.8269009,None,753.8269009,None,753.8269009,None,0.044921875,-0.3583984375,1,0,0,third_right,0.9996813799998563,None,,,,FQ_1001,2023-10-23_10h52.37.821,exp,2021.1.4,60.13453297715404,
,,,,3,0,3,0,,,,,,,,,,,,,,,,,,,,,,,,,,,,,,,,,,,,,,,,,,,,,,,,,,,,,,,,,,,,,,,,,,,,763.85724028,None,,,,,,,,,,old,760.1274036,None,760.12481666,None,761.6413553,None,4,762.6404703000001,None,763.6073673999999,None,763.6073673999999,None,763.6073673999999,None,763.6073673999999,None,763.6073673999999,None,763.6073673999999,None,0.009765625,-0.3271484375,1,0,0,third_right,0.9991926800000783,None,,,,FQ_1001,2023-10-23_10h52.37.821,exp,2021.1.4,60.13453297715404,
,,,,4,0,4,0,,,,,,,,,,,,,,,,,,,,,,,,,,,,,,,,,,,,,,,,,,,,,,,,,,,,,,,,,,,,,,,,,,,,768.4055624799998,None,,,,,,,,,,old,764.5457655999999,None,764.5574316399999,None,766.0561972999999,None,5,767.0559324999999,None,768.0223257,None,768.0223257,None,768.0223257,None,768.0223257,None,768.0223257,None,768.0223257,None,-0.0087890625,-0.0625,1,0,0,second_middle,0.999234480000041,None,,,,FQ_1001,2023-10-23_10h52.37.821,exp,2021.1.4,60.13453297715404,
,,,,5,0,5,0,,,,,,,,,,,,,,,,,,,,,,,,,,,,,,,,,,,,,,,,,,,,,,,,,,,,,,,,,,,,,,,,,,,,772.9042294799999,None,,,,,,,,,,old,769.1031046,None,769.10605084,None,770.6048919,None,6,771.6049174,None,772.571394,None,772.571394,None,772.571394,None,772.571394,None,772.571394,None,772.571394,None,0.0166015625,-0.2900390625,1,0,0,third_right,0.9991909799998666,None,,,,FQ_1001,2023-10-23_10h52.37.821,exp,2021.1.4,60.13453297715404,
,,,,6,0,6,0,,,,,,,,,,,,,,,,,,,,,,,,,,,,,,,,,,,,,,,,,,,,,,,,,,,,,,,,,,,,,,,,,,,,777.4029361799999,None,,,,,,,,,,old,773.6058226,None,773.6046416399998,None,775.1202344000001,None,7,776.1199701999999,None,777.0863156,None,777.0863156,None,777.0863156,None,777.0863156,None,777.0863156,None,777.0863156,None,0.01171875,0.0517578125,1,0,0,first_left,0.9991845800000192,None,,,,FQ_1001,2023-10-23_10h52.37.821,exp,2021.1.4,60.13453297715404,
,,,,7,0,7,0,,,,,,,,,,,,,,,,,,,,,,,,,,,,,,,,,,,,,,,,,,,,,,,,,,,,,,,,,,,,,,,,,,,,781.83496468,None,,,,,,,,,,old,778.0912129000001,None,778.08674386,None,779.6027291999999,None,8,780.6019664,None,781.5683434999999,None,781.5683434999999,None,781.5683434999999,None,781.5683434999999,None,781.5683434999999,None,781.5683434999999,None,0.0458984375,0.087890625,1,0,0,first_left,1.0158701800000927,None,,,,FQ_1001,2023-10-23_10h52.37.821,exp,2021.1.4,60.13453297715404,
,,,,8,0,8,0,,,,,,,,,,,,,,,,,,,,,,,,,,,,,,,,,,,,,,,,,,,,,,,,,,,,,,,,,,,,,,,,,,,,786.66684568,None,,,,,,,,,,old,782.5210761999999,None,782.5188096599999,None,784.0347793999999,None,9,785.0344872000001,None,786.0009465999999,None,786.0009465999999,None,786.0009465999999,None,786.0009465999999,None,786.0009465999999,None,786.0009465999999,None,-0.0185546875,-0.2724609375,1,0,0,third_right,0.9997503800000231,None,,,,FQ_1001,2023-10-23_10h52.37.821,exp,2021.1.4,60.13453297715404,
,,,,9,0,9,0,,,,,,,,,,,,,,,,,,,,,,,,,,,,,,,,,,,,,,,,,,,,,,,,,,,,,,,,,,,,,,,,,,,,791.3988557799998,None,,,,,,,,,,old,787.3655710999999,None,787.36740514,None,788.8666805999999,None,10,789.8659373,None,790.8327764000001,None,790.8327764000001,None,790.8327764000001,None,790.8327764000001,None,790.8327764000001,None,790.8327764000001,None,0.009765625,-0.1181640625,1,0,0,second_middle,0.9996137800001179,None,,,,FQ_1001,2023-10-23_10h52.37.821,exp,2021.1.4,60.13453297715404,
,,,,10,0,10,0,,,,,,,,,,,,,,,,,,,,,,,,,,,,,,,,,,,,,,,,,,,,,,,,,,,,,,,,,,,,,,,,,,,,795.93086528,None,,,,,,,,,,old,792.092465,None,792.09935674,None,793.5986788999999,None,11,794.5983587000001,None,795.5642501,None,795.5642501,None,795.5642501,None,795.5642501,None,795.5642501,None,795.5642501,None,-0.0068359375,0.0400390625,1,0,0,first_left,0.9991676800002551,None,,,,FQ_1001,2023-10-23_10h52.37.821,exp,2021.1.4,60.13453297715404,
,,,,11,0,11,0,,,,,,,,,,,,,,,,,,,,,,,,,,,,,,,,,,,,,,,,,,,,,,,,,,,,,,,,,,,,,,,,,,,,800.49619818,None,,,,,,,,,,old,796.6222826000001,None,796.63137374,None,798.1306852999999,None,12,799.1304149,None,800.096254,None,800.096254,None,800.096254,None,800.096254,None,800.096254,None,800.096254,None,0.0302734375,-0.2578125,1,0,0,third_right,0.9991886799996337,None,,,,FQ_1001,2023-10-23_10h52.37.821,exp,2021.1.4,60.13453297715404,
,,,,12,0,12,0,,,,,,,,,,,,,,,,,,,,,,,,,,,,,,,,,,,,,,,,,,,,,,,,,,,,,,,,,,,,,,,,,,,,806.17786508,None,,,,,,,,,,old,801.1876519,None,801.1965908399999,None,802.6955215999999,None,13,803.6952317999999,None,804.6616558999999,None,804.6616558999999,None,804.6616558999999,None,804.6616558999999,None,804.6616558999999,None,804.6616558999999,None,0.0224609375,0.09765625,1,0,0,first_left,0.9992201800000657,None,,,,FQ_1001,2023-10-23_10h52.37.821,exp,2021.1.4,60.13453297715404,
,,,,13,0,13,0,,,,,,,,,,,,,,,,,,,,,,,,,,,,,,,,,,,,,,,,,,,,,,,,,,,,,,,,,,,,,,,,,,,,810.87653428,None,,,,,,,,,,old,806.8657556,None,806.86175896,None,808.3771904,None,14,809.3769285000001,None,810.3604241999999,None,810.3604241999999,None,810.3604241999999,None,810.3604241999999,None,810.3604241999999,None,810.3604241999999,None,0.0498046875,-0.11328125,1,0,0,second_middle,1.015772879999986,None,,,,FQ_1001,2023-10-23_10h52.37.821,exp,2021.1.4,60.13453297715404,
,,,,14,0,14,0,,,,,,,,,,,,,,,,,,,,,,,,,,,,,,,,,,,,,,,,,,,,,,,,,,,,,,,,,,,,,,,,,,,,815.37567818,None,,,,,,,,,,old,811.5754752,None,811.5768732399998,None,813.075873,None,15,814.0755813000001,None,815.0419618999999,None,815.0419618999999,None,815.0419618999999,None,815.0419618999999,None,815.0419618999999,None,815.0419618999999,None,0.029296875,-0.318359375,1,0,0,third_right,0.9991801799999394,None,,,,FQ_1001,2023-10-23_10h52.37.821,exp,2021.1.4,60.13453297715404,
,,,,15,0,15,0,,,,,,,,,,,,,,,,,,,,,,,,,,,,,,,,,,,,,,,,,,,,,,,,,,,,,,,,,,,,,,,,,,,,819.82389618,None,,,,,,,,,,old,816.0700044999999,None,816.0757577399999,None,817.5748776,None,16,818.5747142,None,819.5406223,None,819.5406223,None,819.5406223,None,819.5406223,None,819.5406223,None,819.5406223,None,0.009765625,0.05859375,1,0,0,first_left,1.0153749800001606,None,,,,FQ_1001,2023-10-23_10h52.37.821,exp,2021.1.4,60.13453297715404,
,,,,16,0,16,0,,,,,,,,,,,,,,,,,,,,,,,,,,,,,,,,,,,,,,,,,,,,,,,,,,,,,,,,,,,,,,,,,,,,824.2730784799999,None,,,,,,,,,,old,820.5145802,None,820.5239541399998,None,822.0232483,None,17,823.0234307000001,None,823.9898054999999,None,823.9898054999999,None,823.9898054999999,None,823.9898054999999,None,823.9898054999999,None,823.9898054999999,None,0.0283203125,-0.0673828125,1,0,0,second_middle,0.999694879999879,None,,,,FQ_1001,2023-10-23_10h52.37.821,exp,2021.1.4,60.13453297715404,
,,,,17,0,17,0,,,,,,,,,,,,,,,,,,,,,,,,,,,,,,,,,,,,,,,,,,,,,,,,,,,,,,,,,,,,,,,,,,,,828.70463748,None,,,,,,,,,,old,824.9690940999999,None,824.9731221399999,None,826.4718938999999,None,18,827.4715855,None,828.4380246999999,None,828.4380246999999,None,828.4380246999999,None,828.4380246999999,None,828.4380246999999,None,828.4380246999999,None,0.0283203125,-0.078125,1,0,0,second_middle,0.9992235800002618,None,,,,FQ_1001,2023-10-23_10h52.37.821,exp,2021.1.4,60.13453297715404,
,,,,18,0,18,0,,,,,,,,,,,,,,,,,,,,,,,,,,,,,,,,,,,,,,,,,,,,,,,,,,,,,,,,,,,,,,,,,,,,833.10338598,None,,,,,,,,,,old,829.3914181999999,None,829.3879900599999,None,830.9040035999999,None,19,831.9041679,None,832.8705425,None,832.8705425,None,832.8705425,None,832.8705425,None,832.8705425,None,832.8705425,None,0.015625,0.0634765625,1,0,0,first_left,0.9992225800001506,None,,,,FQ_1001,2023-10-23_10h52.37.821,exp,2021.1.4,60.13453297715404,
,,,,19,0,19,0,,,,,,,,,,,,,,,,,,,,,,,,,,,,,,,,,,,,,,,,,,,,,,,,,,,,,,,,,,,,,,,,,,,,837.6187932799999,None,,,,,,,,,,old,833.7913758,None,833.78720296,None,835.3031799,None,20,836.302723,None,837.2687544,None,837.2687544,None,837.2687544,None,837.2687544,None,837.2687544,None,837.2687544,None,0.0234375,-0.0830078125,1,0,0,second_middle,0.9991771800000606,None,,,,FQ_1001,2023-10-23_10h52.37.821,exp,2021.1.4,60.13453297715404,
,,,,,,,,0,0,0,0,,,,,838.1270170999999,None,846.8431788,None,,images/OBJ_53.png,images/OBJ_154.png,images/OBJ_79.png,848.3803183,849.8817723,850.3816296,851.8815520999999,852.3815245000001,None,848.38277584,None,850.3821310799999,None,852.3815953799999,None,853.8811180999999,None,same,LRM,855.4103763999999,856.9135362,857.3962902000001,858.8958221999999,859.4123236999999,None,855.41350244,None,857.3967983800001,None,859.41236718,None,860.9123829999999,None,0,['leftCL'],861.9121009999999,None,861.9121009999999,None,861.9121009999999,None,861.9121009999999,None,861.9121009999999,None,-0.162109375,-0.2685546875,1,0,0,3.0159016999998585,leftCL,0.016318580000188376,None,864.92788408,None,1,,,,,,,,,,,,,,,,,,,,,,,,,,,,,,,,,,,,,,,20,images/OBJ_20.png,RML,FQ_1001,2023-10-23_10h52.37.821,exp,2021.1.4,60.13453297715404,
,,,,,,,,1,0,1,0,,,,,,,865.5947160000001,None,,images/OBJ_173.png,images/OBJ_179.png,images/OBJ_91.png,867.1457644,868.6601231,869.1427999,870.6423777,871.1422934,None,867.1439973399999,None,869.14282768,None,871.14223638,None,872.6417849,None,same,LRM,874.1766104999999,875.6908957,876.1740831,877.6736632,878.1735028999999,None,874.1746815399999,None,876.17410808,None,878.1735317799998,None,879.6730858000001,None,0,['leftCL'],880.6728323,None,880.6728323,None,880.6728323,None,880.6728323,None,880.6728323,None,-0.228515625,-0.3037109375,1,0,0,0.7834653999998409,leftCL,0.016373480000083873,None,881.4564195799999,None,2,,,,,,,,,,,,,,,,,,,,,,,,,,,,,,,,,,,,,,,,,RML,FQ_1001,2023-10-23_10h52.37.821,exp,2021.1.4,60.13453297715404,
,,,,,,,,2,0,2,0,,,,,,,882.1368726999999,None,,images/OBJ_161.png,images/OBJ_145.png,images/OBJ_43.png,883.6812321,885.1881372,885.6713565,887.1708768999999,887.6707956,None,883.6891668199999,None,885.6713743799999,None,887.67080128,None,889.1702917999999,None,diff,RML,890.7109645999999,892.2194554999999,892.7026996,894.2026774999999,894.7025557,None,890.7198278199999,None,892.7026582799999,None,894.70209428,None,896.2021164,None,1,['rightCL'],897.2013377999999,None,897.2013377999999,None,897.2013377999999,None,897.2013377999999,None,897.2013377999999,None,0.220703125,-0.302734375,1,0,0,11.696149599999899,rightCL,0.01638657999978932,None,908.89795198,None,3,,,,,,,,,,,,,,,,,,,,,,,,,,,,,,,,,,,,,,,,,LRM,FQ_1001,2023-10-23_10h52.37.821,exp,2021.1.4,60.13453297715404,
,,,,,,,,3,0,3,0,,,,,,,909.5709542,None,,images/OBJ_110.png,images/OBJ_119.png,images/OBJ_111.png,911.1165751999999,912.6301699999999,913.1133545,914.6128859,915.1127669,None,911.1139862399998,None,913.11385498,None,915.1127635799999,None,916.6123012,None,diff,MLR,918.1493221000001,919.6619189,920.1451150999999,921.6441871,922.1441213999999,None,918.1452901399998,None,920.14464778,None,922.14405538,None,923.6435855,None,1,['rightCL'],924.6438249,None,924.6438249,None,924.6438249,None,924.6438249,None,924.6438249,None,0.2177734375,-0.306640625,1,0,0,0.31666840000002594,rightCL,0.01638978000005409,None,924.95993998,None,4,,,,,,,,,,,,,,,,,,,,,,,,,,,,,,,,,,,,,,,,,MRL,FQ_1001,2023-10-23_10h52.37.821,exp,2021.1.4,60.13453297715404,
,,,,,,,,4,0,4,0,,,,,,,925.6428974,None,,images/OBJ_68.png,images/OBJ_155.png,images/OBJ_8.png,927.1895557999999,928.6921769999999,929.1758539,930.6748812000001,931.1919189999999,None,927.1926544199998,None,929.17536748,None,931.19139868,None,932.6909776,None,same,MLR,934.2364352,935.7406057000001,936.2233283999999,937.7228729999999,938.2232157999999,None,934.2405464199999,None,936.2233458799999,None,938.2226977799999,None,939.7223048999999,None,0,['leftCL'],940.7219648,None,940.7219648,None,940.7219648,None,940.7219648,None,940.7219648,None,-0.1875,-0.275390625,1,0,0,0.7169351000000006,leftCL,0.0163257799999883,None,941.43896318,None,5,,,,,,,,,,,,,,,,,,,,,,,,,,,,,,,,,,,,,,,,,RML,FQ_1001,2023-10-23_10h52.37.821,exp,2021.1.4,60.13453297715404,
,,,,,,,,5,0,5,0,,,,,,,942.1166822,None,,images/OBJ_64.png,images/OBJ_174.png,images/OBJ_181.png,943.6549006999999,945.1545083999999,945.6538943999999,947.1539218999999,947.6537725000001,None,943.65455634,None,945.65390688,None,947.6538071800001,None,949.152859,None,same,MLR,950.6859887999999,952.1858285999999,952.6851846,954.1851741999999,954.6850575999999,None,950.68569194,None,952.68566908,None,954.68510468,None,956.1845294,None,0,['leftCL'],957.1842205,None,957.1842205,None,957.1842205,None,957.1842205,None,957.1842205,None,-0.1923828125,-0.3212890625,1,0,0,2.4492987999999514,leftCL,0.016390880000017205,None,959.6336725799999,None,6,,,,,,,,,,,,,,,,,,,,,,,,,,,,,,,,,,,,,,,,,LMR,FQ_1001,2023-10-23_10h52.37.821,exp,2021.1.4,60.13453297715404,
,,,,,,,,6,0,6,0,,,,,,,960.3104028,None,,images/OBJ_41.png,images/OBJ_134.png,images/OBJ_126.png,961.8556595,963.3654336,963.8490586999999,965.348162,965.8484649,None,961.8659273199999,None,963.84907598,None,965.84799868,None,967.3480612000001,None,same,MLR,968.9035738999999,970.4138261,970.8970047999999,972.3966138999999,972.8959666000001,None,968.9137943199999,None,970.89691098,None,972.8964335799999,None,974.395526,None,0,['leftCL'],975.3957886999999,None,975.3957886999999,None,975.3957886999999,None,975.3957886999999,None,975.3957886999999,None,-0.2392578125,-0.326171875,1,0,0,0.34997519999978977,leftCL,0.016390279999995983,None,975.7451584799999,None,7,,,,,,,,,,,,,,,,,,,,,,,,,,,,,,,,,,,,,,,,,MRL,FQ_1001,2023-10-23_10h52.37.821,exp,2021.1.4,60.13453297715404,
,,,,,,,,7,0,7,0,,,,,,,976.4237923000001,None,,images/OBJ_12.png,images/OBJ_202.png,images/OBJ_66.png,977.9588085999999,979.4610339000001,979.9610450999999,981.4606054000001,981.9604340999999,None,977.9616931399999,None,979.96092178,None,981.96033928,None,983.4600151,None,same,MLR,984.9899364,986.4924753999999,986.9923303999999,988.4918889,988.991622,None,984.99283664,None,986.9923392799999,None,988.99176708,None,990.490851,None,0,['leftCL'],991.4905362,None,991.4905362,None,991.4905362,None,991.4905362,None,991.4905362,None,-0.2431640625,-0.33203125,1,0,0,0.416506100000106,leftCL,0.016378179999719578,None,991.90706428,None,8,,,,,,,,,,,,,,,,,,,,,,,,,,,,,,,,,,,,,,,,,LMR,FQ_1001,2023-10-23_10h52.37.821,exp,2021.1.4,60.13453297715404,
,,,,,,,,8,0,8,0,,,,,,,992.5779888,None,,images/OBJ_38.png,images/OBJ_97.png,images/OBJ_23.png,994.1320905999999,995.6398036,996.1229887,997.6220805999999,998.1219535999999,None,994.1403262199999,None,996.12301628,None,998.1219338799999,None,999.6215032999999,None,same,MLR,1001.1623488999999,1002.6709705999999,1003.1542952,1004.6533603,1005.1532270999999,None,1001.1710399199999,None,1003.1541938799999,None,1005.1532480799999,None,1006.6527905999999,None,0,['leftCL'],1007.6525156999999,None,1007.6525156999999,None,1007.6525156999999,None,1007.6525156999999,None,1007.6525156999999,None,-0.1796875,-0.3603515625,1,0,0,0.7165000999998483,leftCL,0.016387379999969198,None,1008.3689930799999,None,9,,,,,,,,,,,,,,,,,,,,,,,,,,,,,,,,,,,,,,,,,LRM,FQ_1001,2023-10-23_10h52.37.821,exp,2021.1.4,60.13453297715404,
,,,,,,,,9,0,9,0,,,,,,,1009.0448501000001,None,,images/OBJ_125.png,images/OBJ_139.png,images/OBJ_165.png,1010.6007597,1012.1017107999999,1012.5848670999999,1014.0843408000001,1014.5842843999999,None,1010.61115752,None,1012.58440888,None,1014.5838315799999,None,1016.0833608999999,None,same,MLR,1017.6214067000001,1019.1324841999999,1019.6156814999999,1021.1157177999999,1021.6154927999999,None,1017.6328372199998,None,1019.6156582799999,None,1021.6151284799998,None,1023.1152354000001,None,0,['leftCL'],1024.1148726,None,1024.1148726,None,1024.1148726,None,1024.1148726,None,1024.1148726,None,-0.1796875,-0.3603515625,1,0,0,0.7331011999999646,leftCL,0.016374580000274364,None,1024.84749478,None,10,,,,,,,,,,,,,,,,,,,,,,,,,,,,,,,,,,,,,,,,,RML,FQ_1001,2023-10-23_10h52.37.821,exp,2021.1.4,60.13453297715404,
,,,,,,,,10,0,10,0,,,,,,,1025.5242559,None,,images/OBJ_203.png,images/OBJ_72.png,images/OBJ_200.png,1027.0699199,1028.5796579999999,1029.0628973999999,1030.5629563,1031.0628158,None,1027.0807325199999,None,1029.06329848,None,1031.06284888,None,1032.5622344,None,same,MLR,1034.1010638,1035.6109717,1036.0942228,1037.5938027,1038.0936153,None,1034.1118907199998,None,1036.09476078,None,1038.09398928,None,1039.5932312,None,0,['leftCL'],1040.5933742,None,1040.5933742,None,1040.5933742,None,1040.5933742,None,1040.5933742,None,-0.1865234375,-0.3623046875,1,0,0,0.2833103000000392,leftCL,0.016391180000027816,None,1040.8766633799999,None,11,,,,,,,,,,,,,,,,,,,,,,,,,,,,,,,,,,,,,,,,,LMR,FQ_1001,2023-10-23_10h52.37.821,exp,2021.1.4,60.13453297715404,
,,,,,,,,11,0,11,0,,,,,,,1041.5425704,None,,images/OBJ_149.png,images/OBJ_60.png,images/OBJ_105.png,1043.0868794,1044.5917216,1045.0753911,1046.5749768,1047.0743399,None,1043.0922754199999,None,1045.07541748,None,1047.07470328,None,1048.5739085,None,same,MLR,1050.1180232,1051.6234973,1052.1065894,1053.6062648,1054.1061154,None,1050.1234597199998,None,1052.10669508,None,1054.10600028,None,1055.605165,None,0,['leftCL'],1056.604911,None,1056.604911,None,1056.604911,None,1056.604911,None,1056.604911,None,-0.2353515625,-0.361328125,1,0,0,0.3337655000000268,leftCL,0.016389079999953537,None,1056.93864968,None,12,,,,,,,,,,,,,,,,,,,,,,,,,,,,,,,,,,,,,,,,,RML,FQ_1001,2023-10-23_10h52.37.821,exp,2021.1.4,60.13453297715404,
,,,,,,,,12,0,12,0,,,,,,,1057.6156424,None,,images/OBJ_123.png,images/OBJ_44.png,images/OBJ_136.png,1059.1720939,1060.6875321,1061.1707694,1062.670281,1063.1698936999999,None,1059.1713841199999,None,1061.17032958,None,1063.17027268,None,1064.6695703999999,None,same,MLR,1066.2199477,1067.7349775,1068.2186786,1069.7182234,1070.2176096,None,1066.2192132199998,None,1068.21857178,None,1070.21810718,None,1071.7171662,None,0,['leftCL'],1072.7173438,None,1072.7173438,None,1072.7173438,None,1072.7173438,None,1072.7173438,None,-0.197265625,-0.2783203125,1,0,0,0.6160862000001543,leftCL,0.01638668000009602,None,1073.33340058,None,13,,,,,,,,,,,,,,,,,,,,,,,,,,,,,,,,,,,,,,,,,RLM,FQ_1001,2023-10-23_10h52.37.821,exp,2021.1.4,60.13453297715404,
,,,,,,,,13,0,13,0,,,,,,,1074.0025961,None,,images/OBJ_58.png,images/OBJ_67.png,images/OBJ_9.png,1075.5515179,1077.0655815,1077.5487878,1079.0483216,1079.548204,None,1075.54991294,None,1077.5493294799999,None,1079.54873078,None,1081.0477619,None,diff,RML,1082.5824719,1084.0968811,1084.580117,1086.0796463,1086.5794834,None,1082.58109034,None,1084.58009208,None,1086.58000518,None,1088.0790887,None,1,['rightCL'],1089.0788145,None,1089.0788145,None,1089.0788145,None,1089.0788145,None,1089.0788145,None,0.1708984375,-0.3095703125,1,0,0,0.3333694000000378,rightCL,0.016376679999893895,None,1089.41206148,None,14,,,,,,,,,,,,,,,,,,,,,,,,,,,,,,,,,,,,,,,,,LMR,FQ_1001,2023-10-23_10h52.37.821,exp,2021.1.4,60.13453297715404,
,,,,,,,,14,0,14,0,,,,,,,1090.0839056,None,,images/OBJ_70.png,images/OBJ_138.png,images/OBJ_199.png,1091.6348762999999,1093.1447407,1093.6274477,1095.1275414,1095.6268852,None,1091.6452692199998,None,1093.6274687799998,None,1095.62686008,None,1097.1263987,None,diff,LMR,1098.6682173,1100.1760327,1100.659256,1102.1582891,1102.6585075,None,1098.67641742,None,1100.65875168,None,1102.65813058,None,1104.1578069,None,1,['rightCL'],1105.1574064,None,1105.1574064,None,1105.1574064,None,1105.1574064,None,1105.1574064,None,0.283203125,-0.279296875,1,0,0,1.9157035999999152,rightCL,0.01638457999979437,None,1107.07363868,None,15,,,,,,,,,,,,,,,,,,,,,,,,,,,,,,,,,,,,,,,,,RML,FQ_1001,2023-10-23_10h52.37.821,exp,2021.1.4,60.13453297715404,
,,,,,,,,15,0,15,0,,,,,,,1107.7506142,None,,images/OBJ_112.png,images/OBJ_142.png,images/OBJ_172.png,1109.2990306,1110.8058567,1111.2890082,1112.7890158999999,1113.2889185,None,1109.3068295199998,None,1111.2889628799999,None,1113.28890808,None,1114.7879498,None,same,LMR,1116.3304871999999,1117.8370689,1118.320278,1119.820314,1120.320189,None,1116.3379566199999,None,1118.32076138,None,1120.31968358,None,1121.8195897,None,0,['leftCL'],1122.8189836,None,1122.8189836,None,1122.8189836,None,1122.8189836,None,1122.8189836,None,-0.20703125,-0.2998046875,1,0,0,0.26709459999983665,leftCL,0.016379779999851962,None,1123.08606808,None,16,,,,,,,,,,,,,,,,,,,,,,,,,,,,,,,,,,,,,,,,,RML,FQ_1001,2023-10-23_10h52.37.821,exp,2021.1.4,60.13453297715404,
,,,,,,,,16,0,16,0,,,,,,,1123.7555287,None,,images/OBJ_54.png,images/OBJ_20.png,images/OBJ_50.png,1125.302105,1126.8011053999999,1127.3010006,1128.8005103,1129.3008492,None,1125.3015860399998,None,1127.3014937799999,None,1129.30041448,None,1130.7999516,None,same,LMR,1132.3346475,1133.8495689,1134.3323418,1135.8318483,1136.3321778,None,1132.33281584,None,1134.33230678,None,1136.33171208,None,1137.8312269,None,0,['leftCL'],1138.8309511,None,1138.8309511,None,1138.8309511,None,1138.8309511,None,1138.8309511,None,-0.2060546875,-0.298828125,1,0,0,1.4829776000001402,leftCL,0.016390380000302684,None,1140.3138899799999,None,17,,,,,,,,,,,,,,,,,,,,,,,,,,,,,,,,,,,,,,,,,MRL,FQ_1001,2023-10-23_10h52.37.821,exp,2021.1.4,60.13453297715404,
,,,,,,,,17,0,17,0,,,,,,,1140.9881510999999,None,,images/OBJ_147.png,images/OBJ_96.png,images/OBJ_141.png,1142.5419231,1144.0466221,1144.5296465,1146.0288719999999,1146.5287272,None,1142.5470123199998,None,1144.52966158,None,1146.52875458,None,1148.0283032,None,same,LMR,1149.5732059,1151.0774142999999,1151.5606387,1153.0606242,1153.5604821,None,1149.57826712,None,1151.5606060799998,None,1153.56050068,None,1155.0595865999999,None,0,['leftCL'],1156.059333,None,1156.059333,None,1156.059333,None,1156.059333,None,1156.059333,None,-0.2060546875,-0.298828125,1,0,0,1.516045800000029,leftCL,0.01629097999989426,None,1157.57548598,None,18,,,,,,,,,,,,,,,,,,,,,,,,,,,,,,,,,,,,,,,,,LMR,FQ_1001,2023-10-23_10h52.37.821,exp,2021.1.4,60.13453297715404,
,,,,,,,,18,0,18,0,,,,,,,1158.2433601,None,,images/OBJ_146.png,images/OBJ_93.png,images/OBJ_95.png,1159.7954872,1161.3077673,1161.7909565,1163.2908777,1163.7908439,None,1159.79160974,None,1161.79143398,None,1163.79040558,None,1165.2902698999999,None,same,LMR,1166.8293763,1168.3390299,1168.8222756,1170.32229,1170.8221467,None,1166.83991872,None,1168.8223034799998,None,1170.82203108,None,1172.3212475,None,0,['leftCL'],1173.3209482,None,1173.3209482,None,1173.3209482,None,1173.3209482,None,1173.3209482,None,-0.2060546875,-0.298828125,1,0,0,1.7495120000000952,leftCL,0.016388280000001032,None,1175.07044508,None,19,,,,,,,,,,,,,,,,,,,,,,,,,,,,,,,,,,,,,,,,,RML,FQ_1001,2023-10-23_10h52.37.821,exp,2021.1.4,60.13453297715404,
,,,,,,,,19,0,19,0,,,,,,,1175.7446191,None,,images/OBJ_205.png,images/OBJ_14.png,images/OBJ_113.png,1177.2972109,1178.8031331,1179.2863224,1180.7853971,1181.2853061,None,1177.3031676199998,None,1179.28636878,None,1181.28527348,None,1182.7853519999999,None,same,LMR,1184.3449259,1185.8509471,1186.3342662,1187.833719,1188.3332266,None,1184.3510008199999,None,1186.3342923799999,None,1188.33373628,None,1189.8328159,None,0,['leftCL'],1190.8329770999999,None,1190.8329770999999,None,1190.8329770999999,None,1190.8329770999999,None,1190.8329770999999,None,-0.21484375,-0.3212890625,1,0,0,0.36729910000008203,leftCL,0.016389180000032866,None,1191.19966548,None,20,,,,,,,,,,,,,,,,,,,,,,,,,,,,,,,,,,,,,,,,,LMR,FQ_1001,2023-10-23_10h52.37.821,exp,2021.1.4,60.13453297715404,
,,,,,,,,20,0,20,0,,,,,,,1191.8702471,None,,images/OBJ_40.png,images/OBJ_77.png,images/OBJ_104.png,1193.4179523999999,1194.9313072,1195.4145231,1196.9145088999999,1197.4143667,None,1193.4155005399998,None,1195.41451138,None,1197.41439808,None,1198.9134952,None,same,LMR,1200.4481397,1201.9625941,1202.4462469999999,1203.9458092,1204.4456684,None,1200.44634664,None,1202.44614748,None,1204.44557578,None,1205.9447637,None,0,['leftCL'],1206.944828,None,1206.944828,None,1206.944828,None,1206.944828,None,1206.944828,None,-0.2158203125,-0.3232421875,1,0,0,0.2999565000000075,leftCL,0.01638838000008036,None,1207.24441548,None,21,,,,,,,,,,,,,,,,,,,,,,,,,,,,,,,,,,,,,,,,,RML,FQ_1001,2023-10-23_10h52.37.821,exp,2021.1.4,60.13453297715404,
,,,,,,,,21,0,21,0,,,,,,,1207.9167922,None,,images/OBJ_51.png,images/OBJ_89.png,images/OBJ_116.png,1209.4595716,1210.9599706,1211.4602917,1212.959696,1213.4597199,None,1209.4604804399999,None,1211.46031808,None,1213.45977038,None,1214.9588051,None,same,LMR,1216.4922347,1217.9917271,1218.4910859,1219.9906555999999,1220.4905194,None,1216.49166404,None,1218.49160168,None,1220.49053528,None,1221.9905420999999,None,0,['leftCL'],1222.9898140999999,None,1222.9898140999999,None,1222.9898140999999,None,1222.9898140999999,None,1222.9898140999999,None,-0.2158203125,-0.3232421875,1,0,0,0.7993759999999384,leftCL,0.016391879999900993,None,1223.78961128,None,22,,,,,,,,,,,,,,,,,,,,,,,,,,,,,,,,,,,,,,,,,LRM,FQ_1001,2023-10-23_10h52.37.821,exp,2021.1.4,60.13453297715404,
,,,,,,,,22,0,22,0,,,,,,,1224.4556493999999,None,,images/OBJ_120.png,images/OBJ_81.png,images/OBJ_186.png,1225.9916153,1227.5056503,1227.9888101,1229.487856,1229.9877609999999,None,1225.98897144,None,1227.98833268,None,1229.98773658,None,1231.4872932,None,diff,LRM,1233.0224533,1234.5369532,1235.0201167,1236.5191677999999,1237.0190291,None,1233.02011144,None,1235.01962218,None,1237.01905338,None,1238.518586,None,1,['rightCL'],1239.5183061,None,1239.5183061,None,1239.5183061,None,1239.5183061,None,1239.5183061,None,0.169921875,-0.310546875,1,0,0,0.30047819999981584,rightCL,0.016381480000063675,None,1239.81876308,None,23,,,,,,,,,,,,,,,,,,,,,,,,,,,,,,,,,,,,,,,,,RML,FQ_1001,2023-10-23_10h52.37.821,exp,2021.1.4,60.13453297715404,
,,,,,,,,23,0,23,0,,,,,,,1240.4861105,None,,images/OBJ_4.png,images/OBJ_187.png,images/OBJ_109.png,1242.0370421,1243.5504591,1244.0336837,1245.533212,1246.0330795,None,1242.03464614,None,1244.03365218,None,1246.03306858,None,1247.5326533,None,same,LRM,1249.0710778999999,1250.5822386,1251.0654387,1252.5644865,1253.0643482,None,1249.08217182,None,1251.06546678,None,1253.06438478,None,1254.5639016999999,None,0,['leftCL'],1255.5636195,None,1255.5636195,None,1255.5636195,None,1255.5636195,None,1255.5636195,None,-0.0810546875,-0.322265625,1,0,0,1.3991903000001003,leftCL,0.016386379999858036,None,1257.74637848,None,24,,,,,,,,,,,,,,,,,,,,,,,,,,,,,,,,,,,,,,,,,LRM,FQ_1001,2023-10-23_10h52.37.821,exp,2021.1.4,60.13453297715404,
,,,,,,,,24,0,24,0,,,,,,,1258.4215989,None,,images/OBJ_99.png,images/OBJ_74.png,images/OBJ_177.png,1259.9697675,1261.4790545,1261.9622485,1263.461344,1263.9611766,None,1259.97951012,None,1261.9623050799999,None,1263.96122068,None,1265.4607631,None,same,LRM,1267.0008132,1268.5103654,1268.99355,1270.4926484999999,1270.9929668,None,1267.01029372,None,1268.99357338,None,1270.99302418,None,1272.4920439,None,0,['leftCL'],1273.5060057,None,1273.5060057,None,1273.5060057,None,1273.5060057,None,1273.5060057,None,-0.107421875,-0.3232421875,1,0,0,1.6002059999998437,leftCL,0.016301780000048893,None,1275.10618008,None,25,,,,,,,,,,,,,,,,,,,,,,,,,,,,,,,,,,,,,,,,,RML,FQ_1001,2023-10-23_10h52.37.821,exp,2021.1.4,60.13453297715404,
,,,,,,,,,,,,,,,,,,,,,,,,,,,,,,,,,,,,,,,,,,,,,,,,,,,,,,,,,,,,,,,,,,,,,,,,,,,,,25,1275.6119248,None,None,None,space,1154.6435361000001,None,None,,,,,,,,,,,,,,,,,,,,,,,,,,,,,,,,,,FQ_1001,2023-10-23_10h52.37.821,exp,2021.1.4,60.13453297715404,
,,,,0,0,0,0,,,,,,,,,,,,,,,,,,,,,,,,,,,,,,,,,,,,,,,,,,,,,,,,,,,,,,,,,,,,,,,,,,,,1440.20997538,None,,,,,,,,,,old,1427.7961172,None,1427.8021457599987,None,1429.2964073,None,1,1430.2961165,None,1431.2624935,None,1431.2624935,None,1431.2624935,None,1431.2624935,None,1431.2624935,None,1431.2624935,None,-0.015625,-0.142578125,1,0,0,second_middle,0.9990219799997249,None,,,,FQ_1001,2023-10-23_10h52.37.821,exp,2021.1.4,60.13453297715404,
