EncodingTrials.thisRepN,EncodingTrials.thisTrialN,EncodingTrials.thisN,EncodingTrials.thisIndex,RetrievalTrials.thisRepN,RetrievalTrials.thisTrialN,RetrievalTrials.thisN,RetrievalTrials.thisIndex,Instructions.started,Instructions.stopped,fixation.started,fixation.stopped,trialOrder,triplet1,triplet2,triplet3,Triplet1.started,Triplet1.stopped,Triplet2.started,Triplet2.stopped,Triplet3.started,Triplet3.stopped,sound_pop.started,sound_pop.stopped,sound_pop2.started,sound_pop2.stopped,sound_pop3.started,sound_pop3.stopped,Mask.started,Mask.stopped,encodingType,nextTrial,img1.started,img1.stopped,img2.started,img2.stopped,img3.started,img3.stopped,sound_pop4.started,sound_pop4.stopped,sound_pop5.started,sound_pop5.stopped,sound_pop6.started,sound_pop6.stopped,text_2.started,text_2.stopped,methodCheck,Method Clicked,text.started,text.stopped,sameText.started,sameText.stopped,diffText.started,diffText.stopped,leftCL.started,leftCL.stopped,rightCL.started,rightCL.stopped,MethodMouse.x,MethodMouse.y,MethodMouse.leftButton,MethodMouse.midButton,MethodMouse.rightButton,MethodMouse.time,MethodMouse.clicked_name,MethodMouse.started,MethodMouse.stopped,clickedSound.started,clickedSound.stopped,encodingTrials,BlockBreak.started,BlockBreak.stopped,text_4.started,text_4.stopped,start2.keys,start2.rt,start2.started,start2.stopped,retType,retIMG.started,retIMG.stopped,sound_pop7.started,sound_pop7.stopped,question_text.started,question_text.stopped,retTrials,decisionQ_2.started,decisionQ_2.stopped,first_left.started,first_left.stopped,second_middle.started,second_middle.stopped,third_right.started,third_right.stopped,First.started,First.stopped,Second.started,Second.stopped,Third.started,Third.stopped,Order_Position_Response.x,Order_Position_Response.y,Order_Position_Response.leftButton,Order_Position_Response.midButton,Order_Position_Response.rightButton,Order_Position_Response.clicked_name,Order_Position_Response.started,Order_Position_Response.stopped,participant,date,expName,psychopyVersion,frameRate,
0,0,0,0,,,,,62.09105659998022,None,63.1053667999804,None,MRL,images/OBJ_43.png,images/OBJ_173.png,images/OBJ_110.png,64.74548719997983,66.25797539995983,66.72451299999375,68.2243808999774,68.72392539994325,None,64.75868899998022,None,66.72459000995732,None,68.72446180997068,None,70.22350489994278,None,diff,LRM,71.85863929998595,73.37254989997018,73.85621059994446,75.35530769999605,75.85569109994685,None,71.85704398998642,None,73.85628790996853,None,75.85521630995791,None,77.35476989997551,None,1,['rightCL'],78.35450069996295,None,78.35450069996295,None,78.35450069996295,None,78.35450069996295,None,78.35450069996295,None,0.275390625,-0.3427734375,1,0,0,0.8627252000151202,rightCL,0.013136110035702586,None,79.22092880996061,None,,,,,,,,,,,,,,,,,,,,,,,,,,,,,,,,,,,,,,,,MM1000,2023-10-09_13h41.28.100,exp,2021.1.4,59.91791246961963,
1,0,1,0,,,,,,,79.86679479997838,None,RML,images/OBJ_148.png,images/OBJ_54.png,images/OBJ_160.png,81.42102129996056,82.93696179997642,83.42016179999337,84.9192064999952,85.41909179999493,None,81.42085343997461,None,83.42017590994365,None,85.41910290998058,None,86.919136099983,None,same,LRM,88.46791769994888,89.96774009999353,90.46757929999148,91.96714469994185,92.46756329998607,None,88.46869963997743,None,90.4676166099438,None,92.46706150996616,None,93.96656669996446,None,1,['leftCL'],94.96632589999354,None,94.96632589999354,None,94.96632589999354,None,94.96632589999354,None,94.96632589999354,None,-0.22265625,-0.2333984375,1,0,0,1.2658214999828488,leftCL,0.016367310017812997,None,96.23267260997673,None,,,,,,,,,,,,,,,,,,,,,,,,,,,,,,,,,,,,,,,,MM1000,2023-10-09_13h41.28.100,exp,2021.1.4,59.91791246961963,
2,0,2,0,,,,,,,96.87870559998555,None,LRM,images/OBJ_137.png,images/OBJ_83.png,images/OBJ_37.png,98.42724679998355,99.93201919994317,100.41509959998075,101.91480919998139,102.41417149995686,None,98.43248833997642,None,100.41527900996735,None,102.41418190999539,None,103.91371019999497,None,same,LRM,105.4575566999847,106.96332949999487,107.44650439999532,108.94609019998461,109.44546309998259,None,105.46332143994515,None,107.4465431099583,None,109.4459483099694,None,110.94503569998778,None,1,['leftCL'],111.94501449994277,None,111.94501449994277,None,111.94501449994277,None,111.94501449994277,None,111.94501449994277,None,-0.2216796875,-0.2333984375,1,0,0,0.3161837999941781,leftCL,0.016334809944964945,None,112.26132980996627,None,,,,,,,,,,,,,,,,,,,,,,,,,,,,,,,,,,,,,,,,MM1000,2023-10-09_13h41.28.100,exp,2021.1.4,59.91791246961963,
3,0,3,0,,,,,,,112.90862699999707,None,RLM,images/OBJ_84.png,images/OBJ_26.png,images/OBJ_158.png,114.45434549998026,115.96028179995483,116.44344119995367,117.94351999997161,118.44283649994759,None,114.46130463995506,None,116.44380530994968,None,118.44284750999068,None,119.942433899967,None,same,LRM,121.4890674999915,122.99188449996291,123.4913799999631,124.99130719999084,125.49079659994459,None,121.49217403996737,None,123.49187640997698,None,125.49079300999293,None,126.99035689997254,None,1,['leftCL'],127.99044079997111,None,127.99044079997111,None,127.99044079997111,None,127.99044079997111,None,127.99044079997111,None,-0.220703125,-0.232421875,1,0,0,1.3663626000052318,leftCL,0.016336310014594346,None,129.35690960998764,None,,,,,,,,,,,,,,,,,,,,,,,,,,,,,,,,,,,,,,,,MM1000,2023-10-09_13h41.28.100,exp,2021.1.4,59.91791246961963,
4,0,4,0,,,,,,,129.998789699981,None,LMR,images/OBJ_189.png,images/OBJ_171.png,images/OBJ_105.png,131.61162319994764,133.12188019999303,133.60550969996257,135.10513409995474,135.6045103999786,None,131.62297127994245,None,133.6054743099434,None,135.60454010998947,None,137.10463759995764,None,same,LRM,138.70482459996128,140.21982399997069,140.7030289999675,142.2025717999786,142.70239439996658,None,138.70381896999316,None,140.70303260995425,None,142.70248900994775,None,144.2019994999864,None,1,['leftCL'],145.20172169996658,None,145.20172169996658,None,145.20172169996658,None,145.20172169996658,None,145.20172169996658,None,-0.220703125,-0.232421875,1,0,0,0.39989820000482723,leftCL,0.016338209970854223,None,145.6016537099553,None,,,,,,,,,,,,,,,,,,,,,,,,,,,,,,,,,,,,,,,,MM1000,2023-10-09_13h41.28.100,exp,2021.1.4,59.91791246961963,
5,0,5,0,,,,,,,146.2487927999464,None,RML,images/OBJ_11.png,images/OBJ_186.png,images/OBJ_94.png,147.82910319999792,149.33388689998537,149.8174522999907,151.31662989995675,151.81646579998778,None,147.83450405995828,None,149.81745760999038,None,151.8165101099934,None,153.31605369999306,None,same,LRM,154.89188719994854,156.39851539995288,156.8816924999701,158.381235799985,158.881587699987,None,154.89899985996308,None,156.88168500998873,None,158.88110850996455,None,160.38069229997927,None,1,['leftCL'],161.38040819996968,None,161.38040819996968,None,161.38040819996968,None,161.38040819996968,None,161.38040819996968,None,-0.228515625,-0.2568359375,1,0,0,0.3164121999870986,leftCL,0.016298309958074242,None,161.69700270996546,None,,,,,,,,,,,,,,,,,,,,,,,,,,,,,,,,,,,,,,,,MM1000,2023-10-09_13h41.28.100,exp,2021.1.4,59.91791246961963,
6,0,6,0,,,,,,,162.3498041999992,None,LMR,images/OBJ_206.png,images/OBJ_88.png,images/OBJ_157.png,163.94073289999506,165.446243399987,165.9290822999901,167.42860659997677,167.92851329996483,None,163.94694865999045,None,165.9294475099945,None,167.92850330996444,None,169.42803719994845,None,same,LRM,171.01539399998728,172.52712179999799,172.9936531999847,174.49361389997648,174.99307989998488,None,171.01101595999208,None,172.99369580997737,None,174.99310560996528,None,176.49301119998563,None,1,['leftCL'],177.49238189996686,None,177.49238189996686,None,177.49238189996686,None,177.49238189996686,None,177.49238189996686,None,-0.2275390625,-0.2568359375,1,0,0,0.7996518000145443,leftCL,0.016298110014759004,None,178.2922165099939,None,,,,,,,,,,,,,,,,,,,,,,,,,,,,,,,,,,,,,,,,MM1000,2023-10-09_13h41.28.100,exp,2021.1.4,59.91791246961963,
7,0,7,0,,,,,,,178.93975229997886,None,LRM,images/OBJ_65.png,images/OBJ_187.png,images/OBJ_22.png,180.51497939997353,182.02435509994393,182.50795629998902,184.00764399999753,184.50699069997063,None,180.52499835999916,None,182.50808490999626,None,184.50749730994576,None,186.0065594999469,None,same,LRM,187.57708609994734,189.08897499996237,189.57217929995386,191.07173609995516,191.57159999996657,None,187.57331194999279,None,189.572211409983,None,191.57162740995992,None,193.0711582999793,None,1,['leftCL'],194.07090739998966,None,194.07090739998966,None,194.07090739998966,None,194.07090739998966,None,194.07090739998966,None,-0.189453125,-0.248046875,1,0,0,0.33324430003995076,leftCL,0.016342009999789298,None,194.4041912099987,None,,,,,,,,,,,,,,,,,,,,,,,,,,,,,,,,,,,,,,,,MM1000,2023-10-09_13h41.28.100,exp,2021.1.4,59.91791246961963,
8,0,8,0,,,,,,,195.05161569995107,None,MLR,images/OBJ_36.png,images/OBJ_48.png,images/OBJ_190.png,196.63355879997835,198.13636439997936,198.63621169998078,200.13577809999697,200.63563139998587,None,196.6369700599811,None,198.63624310994638,None,200.63566250994919,None,202.13519529998302,None,same,LRM,203.7176151999738,205.21762639994267,205.71745539997937,207.21701099997154,207.71686429996043,None,203.71825785996626,None,205.7175442099746,None,207.716918609984,None,209.2169898999855,None,1,['leftCL'],210.21613689995138,None,210.21613689995138,None,210.21613689995138,None,210.21613689995138,None,210.21613689995138,None,-0.189453125,-0.248046875,1,0,0,0.7501971000456251,leftCL,0.016391010023653507,None,210.96635940997513,None,,,,,,,,,,,,,,,,,,,,,,,,,,,,,,,,,,,,,,,,MM1000,2023-10-09_13h41.28.100,exp,2021.1.4,59.91791246961963,
9,0,9,0,,,,,,,211.61253829998896,None,RML,images/OBJ_38.png,images/OBJ_125.png,images/OBJ_168.png,213.1975408999715,214.69867269997485,215.1980629999889,216.69798729999457,217.1974953999743,None,213.19919885995333,None,215.19860760996235,None,217.19790520996904,None,218.69709679996595,None,diff,MLR,220.27933709998615,221.7794696999481,222.27927729999647,223.77888129994972,224.27876539999852,None,220.28002725999104,None,222.27984770999174,None,224.27876100998256,None,225.77829709998332,None,1,['rightCL'],226.7786083999672,None,226.7786083999672,None,226.7786083999672,None,226.7786083999672,None,226.7786083999672,None,0.04296875,-0.3046875,1,0,0,0.766271400032565,rightCL,0.01630341005511582,None,228.36096170999227,None,,,,,,,,,,,,,,,,,,,,,,,,,,,,,,,,,,,,,,,,MM1000,2023-10-09_13h41.28.100,exp,2021.1.4,59.91791246961963,
10,0,10,0,,,,,,,229.01067409996176,None,LMR,images/OBJ_126.png,images/OBJ_33.png,images/OBJ_40.png,230.59369529999094,232.09310589998495,232.59297479997622,234.09253479994368,234.59240209998097,None,230.59418365997263,None,232.5929607099446,None,234.59243180999184,None,236.09249809995526,None,same,MLR,237.67141089995857,239.1749170999974,239.67476929997792,241.17397099995287,241.6737175999442,None,237.67500245999545,None,239.67432670994313,None,241.67373390996946,None,243.1732834999566,None,1,['leftCL'],244.17298719997052,None,244.17298719997052,None,244.17298719997052,None,244.17298719997052,None,244.17298719997052,None,-0.130859375,-0.2109375,1,0,0,0.8665101999649778,leftCL,0.016385210037697107,None,245.0394802099967,None,,,,,,,,,,,,,,,,,,,,,,,,,,,,,,,,,,,,,,,,MM1000,2023-10-09_13h41.28.100,exp,2021.1.4,59.91791246961963,
11,0,11,0,,,,,,,245.68445419997443,None,RLM,images/OBJ_61.png,images/OBJ_53.png,images/OBJ_107.png,247.2663051999989,248.77161489997525,249.25484319997486,250.75439629994798,251.25427319994196,None,247.27277185998392,None,249.2548621099617,None,251.25429980998743,None,252.75382719998015,None,diff,RML,254.33265869994648,255.83676999999443,256.31951829994796,257.81906119995983,258.31938819994684,None,254.33679725995754,None,256.31996470998854,None,258.318908409978,None,259.8184431999689,None,0,['leftCL'],260.81818999996176,None,260.81818999996176,None,260.81818999996176,None,260.81818999996176,None,260.81818999996176,None,-0.1328125,-0.2119140625,1,0,0,1.1162261000135913,leftCL,0.016328910016454756,None,261.93448940996893,None,,,,,,,,,,,,,,,,,,,,,,,,,,,,,,,,,,,,,,,,MM1000,2023-10-09_13h41.28.100,exp,2021.1.4,59.91791246961963,
12,0,12,0,,,,,,,262.5844611999928,None,LMR,images/OBJ_102.png,images/OBJ_39.png,images/OBJ_198.png,264.17064119997667,265.68342359998496,266.166623899946,267.6666372999898,268.1660398999811,None,264.1673780599725,None,266.16664370999786,None,268.1664237099525,None,269.6660880999989,None,diff,RML,271.2492152999621,272.7479795999825,273.24783299997216,274.7474126999732,275.24728579999646,None,271.2486073599779,None,273.2478603099647,None,275.2477841099666,None,276.74685349996435,None,1,['rightCL'],277.7465700999601,None,277.7465700999601,None,277.7465700999601,None,277.7465700999601,None,277.7465700999601,None,0.14453125,-0.2841796875,1,0,0,1.2664067999576218,rightCL,0.016392610035836697,None,279.0129534099891,None,,,,,,,,,,,,,,,,,,,,,,,,,,,,,,,,,,,,,,,,MM1000,2023-10-09_13h41.28.100,exp,2021.1.4,59.91791246961963,
13,0,13,0,,,,,,,279.65372599998955,None,LMR,images/OBJ_115.png,images/OBJ_208.png,images/OBJ_44.png,281.24875249998877,282.76229689997854,283.24544209998567,284.7450065999874,285.24473449995276,None,281.24620185999663,None,283.2454711099912,None,285.24477150996097,None,286.743947299954,None,diff,MLR,288.3330262999516,289.8435150999576,290.326777499984,291.82576729997527,292.3423075999599,None,288.32743175994835,None,290.32625920995486,None,292.3428680099954,None,293.8424050999456,None,1,['rightCL'],294.8415702999919,None,294.8415702999919,None,294.8415702999919,None,294.8415702999919,None,294.8415702999919,None,0.1484375,-0.283203125,1,0,0,1.2163890000083484,rightCL,0.016383409965783358,None,296.05795510998576,None,,,,,,,,,,,,,,,,,,,,,,,,,,,,,,,,,,,,,,,,MM1000,2023-10-09_13h41.28.100,exp,2021.1.4,59.91791246961963,
14,0,14,0,,,,,,,296.7024775999598,None,RLM,images/OBJ_73.png,images/OBJ_145.png,images/OBJ_113.png,298.28781509998953,299.7906610999489,300.27335869998205,301.77292119996855,302.2727841999731,None,298.2907830599928,None,300.2738794099481,None,302.27278720995525,None,303.77234289998887,None,same,MLR,305.3419867999619,306.85516899998765,307.33796599996276,308.8375355999451,309.33737409999594,None,305.3386329499481,None,307.3379483099619,None,309.33793710999305,None,310.836983199988,None,1,['leftCL'],311.8366890999605,None,311.8366890999605,None,311.8366890999605,None,311.8366890999605,None,311.8366890999605,None,-0.15625,-0.248046875,1,0,0,0.9664752000244334,leftCL,0.016374010010622442,None,312.8031052099599,None,,,,,,,,,,,,,,,,,,,,,,,,,,,,,,,,,,,,,,,,MM1000,2023-10-09_13h41.28.100,exp,2021.1.4,59.91791246961963,
15,0,15,0,,,,,,,313.45458769996185,None,LMR,images/OBJ_13.png,images/OBJ_42.png,images/OBJ_23.png,315.0421029999852,316.5524323999998,317.03517549997196,318.5347205999424,319.0345746999956,None,315.0531040599802,None,317.0356600099534,None,319.034600809979,None,320.53413079999154,None,diff,RML,322.1020568999811,323.61657079996075,324.09980359999463,325.59977869997965,326.09974139998667,None,322.1004056499514,None,324.09976790997314,None,326.09921270999473,None,327.598758899956,None,0,['leftCL'],328.59894409996923,None,328.59894409996923,None,328.59894409996923,None,328.59894409996923,None,328.59894409996923,None,-0.130859375,-0.3017578125,1,0,0,3.4490340999909677,leftCL,0.01636100996984169,None,332.0479666099476,None,,,,,,,,,,,,,,,,,,,,,,,,,,,,,,,,,,,,,,,,MM1000,2023-10-09_13h41.28.100,exp,2021.1.4,59.91791246961963,
16,0,16,0,,,,,,,332.69345679995604,None,RML,images/OBJ_47.png,images/OBJ_2.png,images/OBJ_25.png,334.27798629994504,335.77971659996547,336.2628663999494,337.76246999995783,338.2789457999752,None,334.2807030599564,None,336.2634051099943,None,338.2789836099895,None,339.77851749997353,None,same,RML,341.35515809996286,342.86101209995104,343.344176899991,344.8442617999972,345.34360959997866,None,341.3615019599441,None,343.3441772099526,None,345.3435886099527,None,346.84317469998496,None,1,['leftCL'],347.84294699999737,None,347.84294699999737,None,347.84294699999737,None,347.84294699999737,None,347.84294699999737,None,-0.1875,-0.3232421875,1,0,0,0.3660321999923326,leftCL,0.0163611100288108,None,348.20949290996066,None,,,,,,,,,,,,,,,,,,,,,,,,,,,,,,,,,,,,,,,,MM1000,2023-10-09_13h41.28.100,exp,2021.1.4,59.91791246961963,
17,0,17,0,,,,,,,348.8555434999871,None,LMR,images/OBJ_114.png,images/OBJ_179.png,images/OBJ_182.png,350.4314920999459,351.9421502999612,352.42481809994206,353.9245025999844,354.42430149996653,None,350.4422562599997,None,352.424882209982,None,354.42433590995495,None,355.9238593999762,None,same,RML,357.49915849999525,359.006290099991,359.4895321999793,360.98955259996,361.4889235999435,None,357.507299759984,None,359.4895447099756,None,361.4890618099656,None,362.9885106999427,None,1,['leftCL'],363.98821569996653,None,363.98821569996653,None,363.98821569996653,None,363.98821569996653,None,363.98821569996653,None,-0.154296875,-0.298828125,1,0,0,0.6326411999762058,leftCL,0.016370109980925918,None,364.6213712099765,None,,,,,,,,,,,,,,,,,,,,,,,,,,,,,,,,,,,,,,,,MM1000,2023-10-09_13h41.28.100,exp,2021.1.4,59.91791246961963,
18,0,18,0,,,,,,,365.2674927999615,None,RML,images/OBJ_49.png,images/OBJ_20.png,images/OBJ_128.png,366.8369045999716,368.3373166999663,368.83725089998916,370.3363526999601,370.8361883999896,None,366.837545449991,None,368.8368079099513,None,370.83617440995874,None,372.33577519998653,None,diff,LMR,373.9069290999905,375.41867649997585,375.9019157999428,377.40098349994514,377.90129959996557,None,373.9020581499499,None,375.9014237099967,None,377.90132300998664,None,379.4003755999729,None,1,['rightCL'],380.4000917999656,None,380.4000917999656,None,380.4000917999656,None,380.4000917999656,None,380.4000917999656,None,0.1220703125,-0.185546875,1,0,0,0.6331076999776997,rightCL,0.01631640997948125,None,381.50029950996975,None,,,,,,,,,,,,,,,,,,,,,,,,,,,,,,,,,,,,,,,,MM1000,2023-10-09_13h41.28.100,exp,2021.1.4,59.91791246961963,
19,0,19,0,,,,,,,382.14877369999886,None,RML,images/OBJ_164.png,images/OBJ_146.png,images/OBJ_89.png,383.7182969999849,385.23198919999413,385.7152411999996,387.21477399999276,387.71460839995416,None,383.7164548499568,None,385.7157553099736,None,387.71513190999974,None,389.2146998999524,None,same,LMR,390.78227749996586,392.29674699995667,392.78039059997536,394.2799358999473,394.7797656999901,None,390.7805007499701,None,392.78040130995794,None,394.77987860999417,None,396.2788091999828,None,1,['leftCL'],397.2790016999934,None,397.2790016999934,None,397.2790016999934,None,397.2790016999934,None,397.2790016999934,None,-0.1416015625,-0.3359375,1,0,0,0.30038700002478436,leftCL,0.01632681000046432,None,397.57895750995374,None,,,,,,,,,,,,,,,,,,,,,,,,,,,,,,,,,,,,,,,,MM1000,2023-10-09_13h41.28.100,exp,2021.1.4,59.91791246961963,
20,0,20,0,,,,,,,398.21921759995166,None,MRL,images/OBJ_71.png,images/OBJ_51.png,images/OBJ_16.png,399.7984958999441,401.31066879996797,401.7938400999992,403.2934476999799,403.7932242999668,None,399.79508624997106,None,401.7943781099806,None,403.79329900997107,None,405.29288739996264,None,same,LMR,406.8581079999567,408.3591086999513,408.8584606999648,410.3580303999479,410.85841549996985,None,406.8591864499904,None,408.8584746099717,None,410.85791330994687,None,412.35744809999596,None,1,['leftCL'],413.35714539996115,None,413.35714539996115,None,413.35714539996115,None,413.35714539996115,None,413.35714539996115,None,-0.125,-0.3466796875,1,0,0,0.7669784000026993,leftCL,0.016391210025176406,None,414.12414190994457,None,,,,,,,,,,,,,,,,,,,,,,,,,,,,,,,,,,,,,,,,MM1000,2023-10-09_13h41.28.100,exp,2021.1.4,59.91791246961963,
21,0,21,0,,,,,,,414.7784420999815,None,RML,images/OBJ_130.png,images/OBJ_97.png,images/OBJ_196.png,416.3734141999739,417.87251509999624,418.37238019995857,419.8719019999844,420.37181179999607,None,416.37314845997605,None,418.37239090999935,None,420.37184370996545,None,421.8713919999427,None,same,LMR,423.4526708999765,424.95380809996277,425.45415379997576,426.95329589996254,427.4531001999858,None,423.4543995599728,None,425.454176709993,None,427.45308480994424,None,428.9526299999561,None,1,['leftCL'],429.95285399997374,None,429.95285399997374,None,429.95285399997374,None,429.95285399997374,None,429.95285399997374,None,-0.1875,-0.3466796875,1,0,0,0.3666639000293799,leftCL,0.01637700997525826,None,430.318962309981,None,,,,,,,,,,,,,,,,,,,,,,,,,,,,,,,,,,,,,,,,MM1000,2023-10-09_13h41.28.100,exp,2021.1.4,59.91791246961963,
22,0,22,0,,,,,,,430.9689160999842,None,RML,images/OBJ_81.png,images/OBJ_178.png,images/OBJ_183.png,432.5409193999949,434.05114619998494,434.5343530999962,436.0343944999622,436.53418049996253,None,432.55174795995697,None,434.5343912099546,None,436.5342277099902,None,438.03335379995406,None,same,LMR,439.6058303999598,441.1157460999675,441.6156205999432,443.1152369999909,443.6155365999439,None,439.616782959993,None,441.6161710099608,None,443.615075109998,None,445.11463869997533,None,1,['leftCL'],446.11435119999805,None,446.11435119999805,None,446.11435119999805,None,446.11435119999805,None,446.11435119999805,None,-0.1845703125,-0.3466796875,1,0,0,0.41666909999912605,leftCL,0.016368810029234737,None,446.531397309975,None,,,,,,,,,,,,,,,,,,,,,,,,,,,,,,,,,,,,,,,,MM1000,2023-10-09_13h41.28.100,exp,2021.1.4,59.91791246961963,
23,0,23,0,,,,,,,447.16917559999274,None,LRM,images/OBJ_7.png,images/OBJ_103.png,images/OBJ_86.png,448.7556634999928,450.2630989999743,450.74628639995353,452.2459117999533,452.7457177999895,None,448.76421635997247,None,450.7463502099912,None,452.74577930995144,None,454.24530729994876,None,same,LMR,455.8201497999835,457.32775569998194,457.8108746999642,459.3109173999983,459.8103768999572,None,455.8283307599835,None,457.81094420998704,None,459.81035300996734,None,461.3104169999715,None,1,['leftCL'],462.31015759997535,None,462.31015759997535,None,462.31015759997535,None,462.31015759997535,None,462.31015759997535,None,-0.185546875,-0.3466796875,1,0,0,0.24949999997625127,leftCL,0.016359709959942847,None,462.55960860994526,None,,,,,,,,,,,,,,,,,,,,,,,,,,,,,,,,,,,,,,,,MM1000,2023-10-09_13h41.28.100,exp,2021.1.4,59.91791246961963,
24,0,24,0,,,,,,,463.2092428999604,None,LMR,images/OBJ_55.png,images/OBJ_199.png,images/OBJ_194.png,464.7844566999702,466.29228399996646,466.7752008999814,468.2745610999991,468.77442339999834,None,464.792423459969,None,466.775028409966,None,468.7744787099713,None,470.27398279996123,None,same,LMR,471.84994429996004,473.3569043999887,473.83961329999147,475.33964829996694,475.83951739995973,None,471.85712525997076,None,473.8396365099528,None,475.83907520998616,None,477.3386291999486,None,1,['leftCL'],478.33878409996396,None,478.33878409996396,None,478.33878409996396,None,478.33878409996396,None,478.33878409996396,None,-0.185546875,-0.3466796875,1,0,0,0.23291969997808337,leftCL,0.016334910062141716,None,478.57160940999745,None,,,,,,,,,,,,,,,,,,,,,,,,,,,,,,,,,,,,,,,,MM1000,2023-10-09_13h41.28.100,exp,2021.1.4,59.91791246961963,
,,,,,,,,,,,,,,,,,,,,,,,,,,,,,,,,,,,,,,,,,,,,,,,,,,,,,,,,,,,,,,,,,,,,,25,479.07071419997374,None,None,None,q,422.0126025000354,None,None,,,,,,,,,,,,,,,,,,,,,,,,,,,,,,,MM1000,2023-10-09_13h41.28.100,exp,2021.1.4,59.91791246961963,
,,,,0,0,0,0,,,,,,,,,,,,,,,,,,,,,,,,,,,,,,,,,,,,,,,,,,,,,,,,,,,,,,,,,,,,488.6686971099756,None,,,,,,,,,,old,484.06124169996474,None,484.07086461998983,None,485.5695628999965,None,1,486.56924869999057,None,487.53564229997573,None,487.53564229997573,None,487.53564229997573,None,487.53564229997573,None,487.53564229997573,None,487.53564229997573,None,0.017578125,-0.1279296875,1,0,0,second_middle,0.9990576099953614,None,MM1000,2023-10-09_13h41.28.100,exp,2021.1.4,59.91791246961963,
,,,,1,0,1,0,,,,,,,,,,,,,,,,,,,,,,,,,,,,,,,,,,,,,,,,,,,,,,,,,,,,,,,,,,,,493.15071130998547,None,,,,,,,,,,old,489.328828699945,None,489.33594780997953,None,490.8351496999967,None,2,491.834524899954,None,492.80124969995813,None,492.80124969995813,None,492.80124969995813,None,492.80124969995813,None,492.80124969995813,None,492.80124969995813,None,-0.013671875,-0.10546875,1,0,0,second_middle,0.9992743100156076,None,MM1000,2023-10-09_13h41.28.100,exp,2021.1.4,59.91791246961963,
,,,,2,0,2,0,,,,,,,,,,,,,,,,,,,,,,,,,,,,,,,,,,,,,,,,,,,,,,,,,,,,,,,,,,,,497.8660475099517,None,,,,,,,,,,old,493.8748493999592,None,493.88430024994886,None,495.38336599996546,None,3,496.38343379995786,None,497.3494644999737,None,497.3494644999737,None,497.3494644999737,None,497.3494644999737,None,497.3494644999737,None,497.3494644999737,None,0.00390625,0.0703125,1,0,0,first_left,0.9992501100059599,None,MM1000,2023-10-09_13h41.28.100,exp,2021.1.4,59.91791246961963,
,,,,3,0,3,0,,,,,,,,,,,,,,,,,,,,,,,,,,,,,,,,,,,,,,,,,,,,,,,,,,,,,,,,,,,,502.4813306099444,None,,,,,,,,,,old,498.56310109997867,None,498.5666497299855,None,500.0653599999496,None,4,501.0650212999899,None,502.0314504999551,None,502.0314504999551,None,502.0314504999551,None,502.0314504999551,None,502.0314504999551,None,502.0314504999551,None,0.0029296875,-0.1142578125,1,0,0,second_middle,0.9992035100003704,None,MM1000,2023-10-09_13h41.28.100,exp,2021.1.4,59.91791246961963,
,,,,4,0,4,0,,,,,,,,,,,,,,,,,,,,,,,,,,,,,,,,,,,,,,,,,,,,,,,,,,,,,,,,,,,,507.0305965099891,None,,,,,,,,,,old,503.18439539999235,None,503.1819870299834,None,504.6973216999904,None,5,505.6975206999923,None,506.6634375999565,None,506.6634375999565,None,506.6634375999565,None,506.6634375999565,None,506.6634375999565,None,506.6634375999565,None,-0.0048828125,-0.1025390625,1,0,0,second_middle,1.0153383099823259,None,MM1000,2023-10-09_13h41.28.100,exp,2021.1.4,59.91791246961963,
,,,,5,0,5,0,,,,,,,,,,,,,,,,,,,,,,,,,,,,,,,,,,,,,,,,,,,,,,,,,,,,,,,,,,,,511.8953266099619,None,,,,,,,,,,old,507.7208591999952,None,507.7306534299452,None,509.2298340999987,None,6,510.22905129997525,None,511.21211169997696,None,511.21211169997696,None,511.21211169997696,None,511.21211169997696,None,511.21211169997696,None,511.21211169997696,None,-0.0185546875,0.0302734375,1,0,0,first_left,1.0154182100086473,None,MM1000,2023-10-09_13h41.28.100,exp,2021.1.4,59.91791246961963,
,,,,6,0,6,0,,,,,,,,,,,,,,,,,,,,,,,,,,,,,,,,,,,,,,,,,,,,,,,,,,,,,,,,,,,,516.610584609973,None,,,,,,,,,,old,512.5948405999807,None,512.5959442299965,None,514.0946003999561,None,7,515.0943159999442,None,516.0611995999934,None,516.0611995999934,None,516.0611995999934,None,516.0611995999934,None,516.0611995999934,None,516.0611995999934,None,-0.0205078125,-0.0546875,1,0,0,second_middle,0.9996517099789344,None,MM1000,2023-10-09_13h41.28.100,exp,2021.1.4,59.91791246961963,
,,,,7,0,7,0,,,,,,,,,,,,,,,,,,,,,,,,,,,,,,,,,,,,,,,,,,,,,,,,,,,,,,,,,,,,521.1759304099891,None,,,,,,,,,,old,517.3016210999922,None,517.3112169299449,None,518.8098778999993,None,8,519.8095979999634,None,520.7759872999741,None,520.7759872999741,None,520.7759872999741,None,520.7759872999741,None,520.7759872999741,None,520.7759872999741,None,-0.0205078125,0.0517578125,1,0,0,first_left,0.9990660100011155,None,MM1000,2023-10-09_13h41.28.100,exp,2021.1.4,59.91791246961963,
,,,,8,0,8,0,,,,,,,,,,,,,,,,,,,,,,,,,,,,,,,,,,,,,,,,,,,,,,,,,,,,,,,,,,,,525.6746002099884,None,,,,,,,,,,old,521.8773476999486,None,521.8761278299672,None,523.3919316999963,None,9,524.3916736999527,None,525.3579659999814,None,525.3579659999814,None,525.3579659999814,None,525.3579659999814,None,525.3579659999814,None,525.3579659999814,None,-0.025390625,-0.0859375,1,0,0,second_middle,0.9990965099423192,None,MM1000,2023-10-09_13h41.28.100,exp,2021.1.4,59.91791246961963,
,,,,9,0,9,0,,,,,,,,,,,,,,,,,,,,,,,,,,,,,,,,,,,,,,,,,,,,,,,,,,,,,,,,,,,,530.2070050099923,None,,,,,,,,,,old,526.3756723999977,None,526.375261229946,None,527.8905982999713,None,10,528.8903098999872,None,529.856673799979,None,529.856673799979,None,529.856673799979,None,529.856673799979,None,529.856673799979,None,529.856673799979,None,-0.025390625,-0.0859375,1,0,0,second_middle,0.9992172100464813,None,MM1000,2023-10-09_13h41.28.100,exp,2021.1.4,59.91791246961963,
,,,,10,0,10,0,,,,,,,,,,,,,,,,,,,,,,,,,,,,,,,,,,,,,,,,,,,,,,,,,,,,,,,,,,,,534.8219969099795,None,,,,,,,,,,old,530.901393099979,None,530.906771929952,None,532.4059465999599,None,11,533.4056934999535,None,534.372012799955,None,534.372012799955,None,534.372012799955,None,534.372012799955,None,534.372012799955,None,534.372012799955,None,-0.037109375,-0.2890625,1,0,0,third_right,0.9991393100353889,None,MM1000,2023-10-09_13h41.28.100,exp,2021.1.4,59.91791246961963,
,,,,11,0,11,0,,,,,,,,,,,,,,,,,,,,,,,,,,,,,,,,,,,,,,,,,,,,,,,,,,,,,,,,,,,,539.5039078099711,None,,,,,,,,,,old,535.5126645999844,None,535.522597129998,None,537.0212718999828,None,12,538.021043899993,None,538.9873536999803,None,538.9873536999803,None,538.9873536999803,None,538.9873536999803,None,538.9873536999803,None,538.9873536999803,None,-0.0107421875,0.05078125,1,0,0,first_left,0.9990224100183696,None,MM1000,2023-10-09_13h41.28.100,exp,2021.1.4,59.91791246961963,
,,,,12,0,12,0,,,,,,,,,,,,,,,,,,,,,,,,,,,,,,,,,,,,,,,,,,,,,,,,,,,,,,,,,,,,544.0026152099657,None,,,,,,,,,,old,540.1950926999561,None,540.2041863299847,None,541.7032556999475,None,13,542.7029862999916,None,543.686516799964,None,543.686516799964,None,543.686516799964,None,543.686516799964,None,543.686516799964,None,543.686516799964,None,-0.0185546875,-0.091796875,1,0,0,second_middle,1.0158370099961758,None,MM1000,2023-10-09_13h41.28.100,exp,2021.1.4,59.91791246961963,
,,,,13,0,13,0,,,,,,,,,,,,,,,,,,,,,,,,,,,,,,,,,,,,,,,,,,,,,,,,,,,,,,,,,,,,548.5179796099604,None,,,,,,,,,,old,544.7070880999672,None,544.719862039981,None,546.2191094999434,None,14,547.2186099999817,None,548.1846792999422,None,548.1846792999422,None,548.1846792999422,None,548.1846792999422,None,548.1846792999422,None,548.1846792999422,None,-0.0185546875,-0.091796875,1,0,0,second_middle,0.9990810099989176,None,MM1000,2023-10-09_13h41.28.100,exp,2021.1.4,59.91791246961963,
,,,,14,0,14,0,,,,,,,,,,,,,,,,,,,,,,,,,,,,,,,,,,,,,,,,,,,,,,,,,,,,,,,,,,,,553.0333379099669,None,,,,,,,,,,old,549.2207419999759,None,549.2181335299566,None,550.7339361999766,None,15,551.7341699999524,None,552.7000538999564,None,552.7000538999564,None,552.7000538999564,None,552.7000538999564,None,552.7000538999564,None,552.7000538999564,None,0.001953125,0.05078125,1,0,0,first_left,1.0158590099890716,None,MM1000,2023-10-09_13h41.28.100,exp,2021.1.4,59.91791246961963,
,,,,15,0,15,0,,,,,,,,,,,,,,,,,,,,,,,,,,,,,,,,,,,,,,,,,,,,,,,,,,,,,,,,,,,,557.6819717099482,None,,,,,,,,,,old,553.7234061999479,None,553.7339951299538,None,555.2331192999845,None,16,556.2328605999937,None,557.1987330999691,None,557.1987330999691,None,557.1987330999691,None,557.1987330999691,None,557.1987330999691,None,557.1987330999691,None,0.0009765625,0.044921875,1,0,0,first_left,0.9991100099869072,None,MM1000,2023-10-09_13h41.28.100,exp,2021.1.4,59.91791246961963,
,,,,16,0,16,0,,,,,,,,,,,,,,,,,,,,,,,,,,,,,,,,,,,,,,,,,,,,,,,,,,,,,,,,,,,,562.1639993099437,None,,,,,,,,,,old,558.386948099942,None,558.3988479399937,None,559.8984553999617,None,17,560.8976733999443,None,561.8640525999945,None,561.8640525999945,None,561.8640525999945,None,561.8640525999945,None,561.8640525999945,None,561.8640525999945,None,0.0009765625,0.0576171875,1,0,0,first_left,0.999088810000103,None,MM1000,2023-10-09_13h41.28.100,exp,2021.1.4,59.91791246961963,
,,,,17,0,17,0,,,,,,,,,,,,,,,,,,,,,,,,,,,,,,,,,,,,,,,,,,,,,,,,,,,,,,,,,,,,567.262517409987,None,,,,,,,,,,old,562.8527491999557,None,562.8641916299995,None,564.3633203999489,None,18,565.3630500999861,None,566.3294634999475,None,566.3294634999475,None,566.3294634999475,None,566.3294634999475,None,566.3294634999475,None,566.3294634999475,None,0.0078125,-0.2421875,1,0,0,third_right,0.9992452099686489,None,MM1000,2023-10-09_13h41.28.100,exp,2021.1.4,59.91791246961963,
,,,,,,,,,,,,,,,,,,,,,,,,,,,,,,,,,,,,,,,,,,,,,,,,,,,,,,,,,,,,,,,,,,,,,,,,,,,,,,old,,,,,,,,,,,,,,,,,,,,,,,,,,,,,,,,,,,
