EncodingTrials.thisRepN,EncodingTrials.thisTrialN,EncodingTrials.thisN,EncodingTrials.thisIndex,RetrievalTrials.thisRepN,RetrievalTrials.thisTrialN,RetrievalTrials.thisN,RetrievalTrials.thisIndex,EncodingBlock2.thisRepN,EncodingBlock2.thisTrialN,EncodingBlock2.thisN,EncodingBlock2.thisIndex,Instructions.started,Instructions.stopped,fixation.started,fixation.stopped,trialOrder,triplet1,triplet2,triplet3,Triplet1.started,Triplet1.stopped,Triplet2.started,Triplet2.stopped,Triplet3.started,Triplet3.stopped,sound_pop.started,sound_pop.stopped,sound_pop2.started,sound_pop2.stopped,sound_pop3.started,sound_pop3.stopped,Mask.started,Mask.stopped,encodingType,nextTrial,img1.started,img1.stopped,img2.started,img2.stopped,img3.started,img3.stopped,sound_pop4.started,sound_pop4.stopped,sound_pop5.started,sound_pop5.stopped,sound_pop6.started,sound_pop6.stopped,text_2.started,text_2.stopped,methodCheck,Method Clicked,text.started,text.stopped,sameText.started,sameText.stopped,diffText.started,diffText.stopped,leftCL.started,leftCL.stopped,rightCL.started,rightCL.stopped,MethodMouse.x,MethodMouse.y,MethodMouse.leftButton,MethodMouse.midButton,MethodMouse.rightButton,MethodMouse.time,MethodMouse.clicked_name,MethodMouse.started,MethodMouse.stopped,clickedSound.started,clickedSound.stopped,encodingTrials,BlockBreak.started,BlockBreak.stopped,text_4.started,text_4.stopped,start2.keys,start2.rt,start2.started,start2.stopped,retType,retIMG.started,retIMG.stopped,sound_pop7.started,sound_pop7.stopped,question_text.started,question_text.stopped,retTrials,decisionQ_2.started,decisionQ_2.stopped,first_left.started,first_left.stopped,second_middle.started,second_middle.stopped,third_right.started,third_right.stopped,First.started,First.stopped,Second.started,Second.stopped,Third.started,Third.stopped,Order_Position_Response.x,Order_Position_Response.y,Order_Position_Response.leftButton,Order_Position_Response.midButton,Order_Position_Response.rightButton,Order_Position_Response.clicked_name,Order_Position_Response.started,Order_Position_Response.stopped,retrievalTrials,retIMG,participant,date,expName,psychopyVersion,frameRate,
0,0,0,0,,,,,,,,,27.215750099974684,None,28.187679199967533,None,LRM,images/OBJ_174.png,images/OBJ_190.png,images/OBJ_5.png,29.830339399981312,31.339853599958587,31.822917799989227,33.322964999999385,33.82283889997052,None,29.839942799997516,None,31.82290629000054,None,33.82228478998295,None,35.33857789996546,None,same,None,36.97601849999046,38.48767079995014,38.97133859997848,40.47089849994518,40.970681499980856,None,36.98794479999924,None,38.971315689961195,None,40.97074858995038,None,42.4698386999662,None,1,['leftCL'],43.47004719998222,None,43.47004719998222,None,43.47004719998222,None,43.47004719998222,None,43.47004719998222,None,-0.189453125,-0.3486328125,1,0,0,0.6143137000035495,leftCL,0.01312599005177617,None,44.08653028995614,None,,,,,,,,,,,,,,,,,,,,,,,,,,,,,,,,,,,,,,,,,,MM1000,2023-10-09_13h24.43.276,exp,2021.1.4,60.115626401459494,
1,0,1,0,,,,,,,,,,,44.73575469997013,None,LMR,images/OBJ_52.png,images/OBJ_107.png,images/OBJ_104.png,46.278055000002496,47.78498649998801,48.26816329994472,49.768075999978464,50.267525399976876,None,46.28527885999065,None,48.26814418995637,None,50.26801388995373,None,51.767149599967524,None,diff,RML,53.31093959999271,54.816682099946775,55.299455699976534,56.79950789996656,57.298876699991524,None,53.31654695995385,None,55.29936628997675,None,57.299373189971085,None,58.79847899999004,None,1,['rightCL'],59.79814989998704,None,59.79814989998704,None,59.79814989998704,None,59.79814989998704,None,59.79814989998704,None,0.31640625,-0.294921875,1,0,0,0.9996652999543585,rightCL,0.016294689965434372,None,61.18159458995215,None,,,,,,,,,,,,,,,,,,,,,,,,,,,,,,,,,,,,,,,,,,MM1000,2023-10-09_13h24.43.276,exp,2021.1.4,60.115626401459494,
2,0,2,0,,,,,,,,,,,61.829709799960256,None,MRL,images/OBJ_81.png,images/OBJ_165.png,images/OBJ_143.png,63.367347199993674,64.87999439996202,65.36368339997716,66.86326839996036,67.3626007999992,None,63.3636524699803,None,65.3631540900038,None,67.36260888998513,None,68.86217689997284,None,same,RML,70.39587909996044,71.89510399999563,72.39496089995373,73.89401309995446,74.3943834999809,None,70.39537316995556,None,72.39488348998711,None,74.39387958996812,None,75.89347299997462,None,1,['leftCL'],76.89316289999988,None,76.89316289999988,None,76.89316289999988,None,76.89316289999988,None,76.89316289999988,None,-0.146484375,-0.2861328125,1,0,0,1.4658787000225857,leftCL,0.016321390052326024,None,78.3593934899487,None,,,,,,,,,,,,,,,,,,,,,,,,,,,,,,,,,,,,,,,,,,MM1000,2023-10-09_13h24.43.276,exp,2021.1.4,60.115626401459494,
3,0,3,0,,,,,,,,,,,79.01028729998507,None,LMR,images/OBJ_109.png,images/OBJ_31.png,images/OBJ_144.png,80.57318789995043,82.07501549995504,82.57484119996661,84.07490049995249,84.57424879999598,None,80.57572215996915,None,82.5748237899912,None,84.57423108996008,None,86.0743123999564,None,same,RML,87.61739639996085,89.12348989996826,89.60661939997226,91.1057535999571,91.60559919994557,None,87.62323586000129,None,89.60660928999422,None,91.60557298996136,None,93.10514619998867,None,1,['leftCL'],94.10487079998711,None,94.10487079998711,None,94.10487079998711,None,94.10487079998711,None,94.10487079998711,None,-0.1806640625,-0.28125,1,0,0,0.31661890004761517,leftCL,0.016288790036924183,None,94.42141298995702,None,,,,,,,,,,,,,,,,,,,,,,,,,,,,,,,,,,,,,,,,,,MM1000,2023-10-09_13h24.43.276,exp,2021.1.4,60.115626401459494,
4,0,4,0,,,,,,,,,,,95.0684180999524,None,RML,images/OBJ_133.png,images/OBJ_181.png,images/OBJ_20.png,96.6113575999625,98.12082089995965,98.6035212999559,100.10306579997996,100.60296429996379,None,96.62064115997636,None,98.60349758999072,None,100.60289238998084,None,102.10251939995214,None,same,RML,103.6404712999938,105.15162739995867,105.6353086999734,107.13490089995321,107.63421779999044,None,103.65181116000748,None,105.63528698996524,None,107.63415328994742,None,109.13384219998261,None,1,['leftCL'],110.1335350999725,None,110.1335350999725,None,110.1335350999725,None,110.1335350999725,None,110.1335350999725,None,-0.197265625,-0.28515625,1,0,0,0.26690360001521185,leftCL,0.01631589001044631,None,110.40027238998445,None,,,,,,,,,,,,,,,,,,,,,,,,,,,,,,,,,,,,,,,,,,MM1000,2023-10-09_13h24.43.276,exp,2021.1.4,60.115626401459494,
5,0,5,0,,,,,,,,,,,111.0465784999542,None,RML,images/OBJ_196.png,images/OBJ_55.png,images/OBJ_2.png,112.6012734999531,114.11566469998797,114.59889369999291,116.09895699995104,116.59830649994547,None,112.59983545999275,None,114.59887538995244,None,116.59831208997056,None,118.09791589999804,None,same,RML,119.64626239996869,121.14696439995896,121.64680729998508,123.14639969996642,123.64623749995371,None,119.6476660599932,None,121.64730879000271,None,123.64622258999734,None,125.14630239998223,None,1,['leftCL'],126.14601479994599,None,126.14601479994599,None,126.14601479994599,None,126.14601479994599,None,126.14601479994599,None,-0.19921875,-0.2841796875,1,0,0,0.816988600010518,leftCL,0.01632499002153054,None,126.96245328999939,None,,,,,,,,,,,,,,,,,,,,,,,,,,,,,,,,,,,,,,,,,,MM1000,2023-10-09_13h24.43.276,exp,2021.1.4,60.115626401459494,
6,0,6,0,,,,,,,,,,,127.60801869997522,None,LMR,images/OBJ_86.png,images/OBJ_128.png,images/OBJ_26.png,129.15433889999986,130.66089059994556,131.14408099994762,132.6435891999863,133.14349779998884,None,129.16165045995731,None,131.1444149899704,None,133.1434669899696,None,134.6435335999704,None,same,RML,136.2001268999884,137.70879529998638,138.19239959999686,139.6920832999749,140.19145209999988,None,136.2095319599961,None,138.19207318999688,None,140.19191778997774,None,141.69104749994585,None,1,['leftCL'],142.6907834999729,None,142.6907834999729,None,142.6907834999729,None,142.6907834999729,None,142.6907834999729,None,-0.1533203125,-0.27734375,1,0,0,0.30041299998993054,leftCL,0.016284989949781448,None,142.99112108995323,None,,,,,,,,,,,,,,,,,,,,,,,,,,,,,,,,,,,,,,,,,,MM1000,2023-10-09_13h24.43.276,exp,2021.1.4,60.115626401459494,
7,0,7,0,,,,,,,,,,,143.6390252999845,None,LRM,images/OBJ_35.png,images/OBJ_87.png,images/OBJ_155.png,145.18970269995043,146.69007669994608,147.1898944999557,148.68947839998873,149.18922819994623,None,145.19029005998746,None,147.18987768998485,None,149.18928188998834,None,150.6884365999722,None,same,RML,152.2336673999671,153.7375197999645,154.22069389995886,155.72028609999688,156.23729069996625,None,152.23789545996115,None,154.2206726899545,None,156.23725338995573,None,157.73636569996597,None,1,['leftCL'],158.73608599998988,None,158.73608599998988,None,158.73608599998988,None,158.73608599998988,None,158.73608599998988,None,-0.1650390625,-0.2822265625,1,0,0,0.5331356000388041,leftCL,0.016290389990899712,None,159.2692097899795,None,,,,,,,,,,,,,,,,,,,,,,,,,,,,,,,,,,,,,,,,,,MM1000,2023-10-09_13h24.43.276,exp,2021.1.4,60.115626401459494,
8,0,8,0,,,,,,,,,,,159.91989919997286,None,LRM,images/OBJ_44.png,images/OBJ_186.png,images/OBJ_111.png,161.47436939994805,162.98525279999012,163.4680438999785,164.96758299996145,165.4674146999605,None,161.4856360499689,None,163.46848548994748,None,165.46743378997198,None,166.96701539994683,None,same,RML,168.5178988999687,170.0327984999749,170.5159848999465,172.01603889995022,172.5158945999574,None,168.51638985999162,None,170.51592948997276,None,172.5158680899709,None,174.0154663999565,None,1,['leftCL'],175.01466439996148,None,175.01466439996148,None,175.01466439996148,None,175.01466439996148,None,175.01466439996148,None,-0.173828125,-0.2822265625,1,0,0,0.43331019999459386,leftCL,0.016333090025000274,None,175.4478923899529,None,,,,,,,,,,,,,,,,,,,,,,,,,,,,,,,,,,,,,,,,,,MM1000,2023-10-09_13h24.43.276,exp,2021.1.4,60.115626401459494,
9,0,9,0,,,,,,,,,,,176.1008121999912,None,LRM,images/OBJ_193.png,images/OBJ_14.png,images/OBJ_101.png,177.66289159998996,179.16348109999672,179.66329219995532,181.16288619994884,181.66271119995508,None,177.66385165995453,None,179.66330809000064,None,181.66277668997063,None,183.1623385999701,None,same,RML,184.70783659996232,186.2118882999639,186.694597899972,188.19415579998167,188.71064569998998,None,184.71214085995453,None,186.69459918996435,None,188.7106682899699,None,190.21023099997547,None,1,['leftCL'],191.21048179996433,None,191.21048179996433,None,191.21048179996433,None,191.21048179996433,None,191.21048179996433,None,-0.1865234375,-0.283203125,1,0,0,0.49619959999108687,leftCL,0.01268909004284069,None,191.70980068999924,None,,,,,,,,,,,,,,,,,,,,,,,,,,,,,,,,,,,,,,,,,,MM1000,2023-10-09_13h24.43.276,exp,2021.1.4,60.115626401459494,
10,0,10,0,,,,,,,,,,,192.36224190000212,None,RML,images/OBJ_68.png,images/OBJ_114.png,images/OBJ_199.png,193.92316829995252,195.42543259996455,195.92527139995946,197.4253167999559,197.92465169995558,None,193.92573285996914,None,195.92571858997107,None,197.92514688998344,None,199.42477199999848,None,diff,LRM,200.98567419999745,202.48999409994576,202.97360299999127,204.47324389999267,204.97264569997787,None,200.9907237599604,None,202.97369708999176,None,204.9730899899674,None,206.47220949997427,None,1,['rightCL'],207.47192989999894,None,207.47192989999894,None,207.47192989999894,None,207.47192989999894,None,207.47192989999894,None,0.2275390625,-0.2822265625,1,0,0,0.6331623999867588,rightCL,0.016284190001897514,None,208.10508398996316,None,,,,,,,,,,,,,,,,,,,,,,,,,,,,,,,,,,,,,,,,,,MM1000,2023-10-09_13h24.43.276,exp,2021.1.4,60.115626401459494,
11,0,11,0,,,,,,,,,,,208.75033939996501,None,RML,images/OBJ_93.png,images/OBJ_6.png,images/OBJ_36.png,210.3007131999475,211.804587599996,212.30383999994956,213.80334639997454,214.30322729999898,None,210.30470685996116,None,212.30384688998456,None,214.30323248996282,None,215.80287389998557,None,diff,MLR,217.34579139994457,218.85191689996282,219.3356057999772,220.8347131999908,221.33450719999382,None,217.35264475996374,None,219.33559308997937,None,221.33453518995665,None,222.834127399954,None,1,['rightCL'],223.83385869994527,None,223.83385869994527,None,223.83385869994527,None,223.83385869994527,None,223.83385869994527,None,0.2275390625,-0.2822265625,1,0,0,0.5826744000078179,rightCL,0.01632209005765617,None,224.41699058998492,None,,,,,,,,,,,,,,,,,,,,,,,,,,,,,,,,,,,,,,,,,,MM1000,2023-10-09_13h24.43.276,exp,2021.1.4,60.115626401459494,
12,0,12,0,,,,,,,,,,,225.07349209999666,None,LRM,images/OBJ_179.png,images/OBJ_97.png,images/OBJ_163.png,226.62211679999018,228.13255329994718,228.61571809998713,230.11534139997093,230.61520790000213,None,226.63294935998275,None,228.6162119899469,None,230.61523468995583,None,232.1148136999691,None,same,MLR,233.65144809999038,235.16384870000184,235.64702449995093,237.14660939999158,237.64644899999257,None,233.64795476999714,None,235.64743839000002,None,237.64686519000097,None,239.1460887999856,None,1,['leftCL'],240.14576970000053,None,240.14576970000053,None,240.14576970000053,None,240.14576970000053,None,240.14576970000053,None,-0.140625,-0.3232421875,1,0,0,0.5327221999759786,leftCL,0.016313589934725314,None,240.67893309000064,None,,,,,,,,,,,,,,,,,,,,,,,,,,,,,,,,,,,,,,,,,,MM1000,2023-10-09_13h24.43.276,exp,2021.1.4,60.115626401459494,
13,0,13,0,,,,,,,,,,,241.31964879995212,None,LMR,images/OBJ_84.png,images/OBJ_25.png,images/OBJ_126.png,242.87689029995818,244.3783897999674,244.8777341999812,246.37778059998527,246.8771978999721,None,242.87823325998616,None,244.877718289959,None,246.87750038998783,None,248.3772425999632,None,same,MLR,249.9362955999677,251.44248319999315,251.92567139997846,253.4257227999624,253.92556059994968,None,249.94277225997067,None,251.92568578995414,None,253.92509168997057,None,255.42467579996446,None,1,['leftCL'],256.42474699998274,None,256.42474699998274,None,256.42474699998274,None,256.42474699998274,None,256.42474699998274,None,-0.154296875,-0.30078125,1,0,0,1.59959150000941,leftCL,0.016327989986166358,None,258.023908089957,None,,,,,,,,,,,,,,,,,,,,,,,,,,,,,,,,,,,,,,,,,,MM1000,2023-10-09_13h24.43.276,exp,2021.1.4,60.115626401459494,
14,0,14,0,,,,,,,,,,,258.67378219997045,None,RLM,images/OBJ_160.png,images/OBJ_69.png,images/OBJ_195.png,260.21982229995774,261.723296399985,262.22306279995246,263.7227387999883,264.22210269997595,None,260.2231713599526,None,262.2231405900035,None,264.22210578998204,None,265.72165299998596,None,same,MLR,267.26977849996183,268.7712576999911,269.2706246000016,270.77018799999496,271.2700499999919,None,267.27157035997374,None,269.27106148999303,None,271.27005518995577,None,272.7696432999801,None,1,['leftCL'],273.7693462999887,None,273.7693462999887,None,273.7693462999887,None,273.7693462999887,None,273.7693462999887,None,-0.154296875,-0.30078125,1,0,0,0.8664560000179335,leftCL,0.016331790015101433,None,274.6357606899634,None,,,,,,,,,,,,,,,,,,,,,,,,,,,,,,,,,,,,,,,,,,MM1000,2023-10-09_13h24.43.276,exp,2021.1.4,60.115626401459494,
15,0,15,0,,,,,,,,,,,275.2820853999583,None,MLR,images/OBJ_10.png,images/OBJ_78.png,images/OBJ_158.png,276.82992119999835,278.3346448999946,278.81790909997653,280.3174118999741,280.8173151999945,None,276.8350269599818,None,278.8183109899925,None,280.8172532899713,None,282.31733989994973,None,same,MLR,283.8586528999731,285.3659424999496,285.8491081999964,287.34876449999865,287.84906439995393,None,283.8662670599646,None,285.8491215899645,None,287.84853498997984,None,289.34812729997793,None,1,['leftCL'],290.34786079998594,None,290.34786079998594,None,290.34786079998594,None,290.34786079998594,None,290.34786079998594,None,-0.154296875,-0.30078125,1,0,0,0.28340619994560257,leftCL,0.01632898999378085,None,290.631562989956,None,,,,,,,,,,,,,,,,,,,,,,,,,,,,,,,,,,,,,,,,,,MM1000,2023-10-09_13h24.43.276,exp,2021.1.4,60.115626401459494,
16,0,16,0,,,,,,,,,,,291.2807493999717,None,RML,images/OBJ_61.png,images/OBJ_64.png,images/OBJ_16.png,292.8211603999953,294.3305051999632,294.8132060999633,296.3131617999752,296.81300099997316,None,292.83075555999534,None,294.8131850899605,None,296.8129718899669,None,298.31219249998685,None,same,MLR,299.85346429998754,301.36180689994944,301.8449872999918,303.3445848999545,303.844395699969,None,299.8616113599623,None,301.84446748997436,None,303.8442948899989,None,305.34397909999825,None,1,['leftCL'],306.34321459999774,None,306.34321459999774,None,306.34321459999774,None,306.34321459999774,None,306.34321459999774,None,-0.154296875,-0.30078125,1,0,0,0.36669789999723434,leftCL,0.01633219001814723,None,306.71029618998875,None,,,,,,,,,,,,,,,,,,,,,,,,,,,,,,,,,,,,,,,,,,MM1000,2023-10-09_13h24.43.276,exp,2021.1.4,60.115626401459494,
17,0,17,0,,,,,,,,,,,307.3532426999882,None,RML,images/OBJ_121.png,images/OBJ_209.png,images/OBJ_116.png,308.9097848999663,310.4258727999986,310.9085600999533,312.4081044999766,312.90800039999885,None,308.90943605997603,None,310.908507890004,None,312.9083267899638,None,314.40752049995353,None,same,MLR,315.95577239996055,317.45712889998686,317.9565183999948,319.4564213999547,319.95597079995787,None,315.95693456000885,None,317.9567672899517,None,319.9559061899723,None,321.45547439996153,None,1,['leftCL'],322.45520469994517,None,322.45520469994517,None,322.45520469994517,None,322.45520469994517,None,322.45520469994517,None,-0.154296875,-0.30078125,1,0,0,0.5665755000081845,leftCL,0.016320689988788217,None,323.0221530899813,None,,,,,,,,,,,,,,,,,,,,,,,,,,,,,,,,,,,,,,,,,,MM1000,2023-10-09_13h24.43.276,exp,2021.1.4,60.115626401459494,
18,0,18,0,,,,,,,,,,,323.66286159999436,None,MLR,images/OBJ_150.png,images/OBJ_202.png,images/OBJ_53.png,325.2080311999889,326.72108950000256,327.20428089995403,328.703360399988,329.2032899999758,None,325.2046767700056,None,327.2037637899572,None,329.20316618994696,None,330.7028173999861,None,same,MLR,332.2366191999754,333.7357360999449,334.23509639996337,335.73466209997423,336.23453859996516,None,332.23551016997664,None,334.2351042899478,None,336.23448608995534,None,337.7340962999733,None,1,['leftCL'],338.73380519996863,None,338.73380519996863,None,338.73380519996863,None,338.73380519996863,None,338.73380519996863,None,-0.154296875,-0.30078125,1,0,0,0.7998240000451915,leftCL,0.016330990009009838,None,339.5335608900001,None,,,,,,,,,,,,,,,,,,,,,,,,,,,,,,,,,,,,,,,,,,MM1000,2023-10-09_13h24.43.276,exp,2021.1.4,60.115626401459494,
19,0,19,0,,,,,,,,,,,340.17331929999636,None,LRM,images/OBJ_96.png,images/OBJ_110.png,images/OBJ_95.png,341.72591839998495,343.23297749995254,343.7157125999802,345.21561979997205,345.71545159997186,None,341.7333024599706,None,343.7161681899976,None,345.71557578996874,None,347.2146426999825,None,same,MLR,348.75536999996984,350.2637641999754,350.74698389996774,352.2470396999852,352.74636859999737,None,348.7640211599996,None,350.74693128995716,None,352.7463761899795,None,354.24597639997955,None,1,['leftCL'],355.2460840999847,None,355.2460840999847,None,355.2460840999847,None,355.2460840999847,None,355.2460840999847,None,-0.154296875,-0.30078125,1,0,0,0.3328987000277266,leftCL,0.016291190055198967,None,355.57892378995314,None,,,,,,,,,,,,,,,,,,,,,,,,,,,,,,,,,,,,,,,,,,MM1000,2023-10-09_13h24.43.276,exp,2021.1.4,60.115626401459494,
20,0,20,0,,,,,,,,,,,356.2253243000014,None,MLR,images/OBJ_142.png,images/OBJ_23.png,images/OBJ_137.png,357.76796709996415,359.2778174999985,359.76138379995245,361.2610793999629,361.76044329995057,None,357.77814126000743,None,359.761480389972,None,361.7604032899777,None,363.26003969996236,None,same,MLR,364.7989318999462,366.309498299961,366.7923516999581,368.29225919995224,368.79223359999014,None,364.80932216000514,None,366.7922778899607,None,368.79216698998937,None,370.29178549995413,None,1,['leftCL'],371.2910060999566,None,371.2910060999566,None,371.2910060999566,None,371.2910060999566,None,371.2910060999566,None,-0.154296875,-0.30078125,1,0,0,0.2667502000113018,leftCL,0.016334390034899116,None,371.5576415899501,None,,,,,,,,,,,,,,,,,,,,,,,,,,,,,,,,,,,,,,,,,,MM1000,2023-10-09_13h24.43.276,exp,2021.1.4,60.115626401459494,
21,0,21,0,,,,,,,,,,,372.1961902999901,None,RML,images/OBJ_33.png,images/OBJ_177.png,images/OBJ_82.png,373.7537858999567,375.2570026999456,375.7568641999969,377.2559482999495,377.75575009995373,None,373.7573215599754,None,375.7563197899668,None,377.756277889997,None,379.25533189997077,None,diff,MLR,380.80318669998087,382.3044908999582,382.80480899999384,384.3038768999977,384.8042362999986,None,380.80472736000087,None,382.8042843899981,None,384.8037185899972,None,386.3033156999736,None,1,['rightCL'],387.3035122999572,None,387.3035122999572,None,387.3035122999572,None,387.3035122999572,None,387.3035122999572,None,0.2236328125,-0.359375,1,0,0,0.3665442999918014,rightCL,0.016315290064085275,None,387.6700584900042,None,,,,,,,,,,,,,,,,,,,,,,,,,,,,,,,,,,,,,,,,,,MM1000,2023-10-09_13h24.43.276,exp,2021.1.4,60.115626401459494,
22,0,22,0,,,,,,,,,,,388.3194568999461,None,RML,images/OBJ_74.png,images/OBJ_88.png,images/OBJ_48.png,389.86482779996004,391.36897669994505,391.8517381999991,393.351234999951,393.8678018999635,None,389.86883485995935,None,391.8521360899846,None,393.8677309899882,None,395.3678772999556,None,same,MLR,396.9255545999622,398.43358999997145,398.9163441999699,400.41592539998237,400.9162266999483,None,396.9333548599738,None,398.91676548995895,None,400.91566748998014,None,402.4153227999923,None,1,['leftCL'],403.41506309999386,None,403.41506309999386,None,403.41506309999386,None,403.41506309999386,None,403.41506309999386,None,-0.1015625,-0.306640625,1,0,0,0.3828114999923855,leftCL,0.01629498996771872,None,403.7982777899539,None,,,,,,,,,,,,,,,,,,,,,,,,,,,,,,,,,,,,,,,,,,MM1000,2023-10-09_13h24.43.276,exp,2021.1.4,60.115626401459494,
23,0,23,0,,,,,,,,,,,404.44820029998664,None,LMR,images/OBJ_100.png,images/OBJ_57.png,images/OBJ_157.png,405.9933173999889,407.4975603999919,407.98082769999746,409.4803191999672,409.99650829995517,None,405.9975029600086,None,407.9803180899995,None,409.99687599000174,None,411.4960036999546,None,same,MLR,413.03937099996256,414.54514269996434,415.0283094999613,416.52790190000087,417.0277638999978,None,413.045418059954,None,415.0282929899928,None,417.02774998999087,None,418.52728329994716,None,1,['leftCL'],419.52699639997445,None,419.52699639997445,None,419.52699639997445,None,419.52699639997445,None,419.52699639997445,None,-0.1201171875,-0.3115234375,1,0,0,0.3827269999892451,leftCL,0.016324390016961843,None,419.9102016899793,None,,,,,,,,,,,,,,,,,,,,,,,,,,,,,,,,,,,,,,,,,,MM1000,2023-10-09_13h24.43.276,exp,2021.1.4,60.115626401459494,
24,0,24,0,,,,,,,,,,,420.55699630000163,None,LMR,images/OBJ_15.png,images/OBJ_67.png,images/OBJ_99.png,422.1101811999688,423.6262695999467,424.10900879994733,425.6085725000012,426.1084163999767,None,422.1099788599881,None,424.10895699000105,None,426.10840428998347,None,427.60799449996557,None,same,MLR,429.1559355999925,430.6571065999451,431.15694869996514,432.6569958999753,433.1564038999495,None,429.15782855995934,None,431.1568832899735,None,433.15686348999736,None,434.6563180999947,None,1,['leftCL'],435.6556776999496,None,435.6556776999496,None,435.6556776999496,None,435.6556776999496,None,435.6556776999496,None,-0.1533203125,-0.2578125,1,0,0,0.5665178000344895,leftCL,0.01627309003379196,None,436.22214148996284,None,,,,,,,,,,,,,,,,,,,,,,,,,,,,,,,,,,,,,,,,,,MM1000,2023-10-09_13h24.43.276,exp,2021.1.4,60.115626401459494,
,,,,,,,,,,,,,,,,,,,,,,,,,,,,,,,,,,,,,,,,,,,,,,,,,,,,,,,,,,,,,,,,,,,,,,,,,25,436.7279380999971,None,None,None,q,429.53990139998496,None,None,,,,,,,,,,,,,,,,,,,,,,,,,,,,,,,,,MM1000,2023-10-09_13h24.43.276,exp,2021.1.4,60.115626401459494,
,,,,0,0,0,0,,,,,,,,,,,,,,,,,,,,,,,,,,,,,,,,,,,,,,,,,,,,,,,,,,,,,,,,,,,,,,,,465.6974164899963,None,,,,,,,,,,old,456.7227769999881,None,456.73295587998587,None,458.23248439998133,None,1,459.23253579996526,None,460.21520759997657,None,460.21520759997657,None,460.21520759997657,None,460.21520759997657,None,460.21520759997657,None,460.21520759997657,None,0.025390625,0.1015625,1,0,0,first_left,0.9990478900144808,None,,,MM1000,2023-10-09_13h24.43.276,exp,2021.1.4,60.115626401459494,
,,,,1,0,1,0,,,,,,,,,,,,,,,,,,,,,,,,,,,,,,,,,,,,,,,,,,,,,,,,,,,,,,,,,,,,,,,,476.84370198996623,None,,,,,,,,,,old,466.36008659994695,None,466.3630892899761,None,467.8629701999598,None,2,468.8627246999531,None,469.82957299996633,None,469.82957299996633,None,469.82957299996633,None,469.82957299996633,None,469.82957299996633,None,469.82957299996633,None,-0.0087890625,0.0380859375,1,0,0,first_left,0.9992543899570592,None,,,MM1000,2023-10-09_13h24.43.276,exp,2021.1.4,60.115626401459494,
,,,,2,0,2,0,,,,,,,,,,,,,,,,,,,,,,,,,,,,,,,,,,,,,,,,,,,,,,,,,,,,,,,,,,,,,,,,481.559003189957,None,,,,,,,,,,old,477.5107564999489,None,477.5103619900125,None,479.00968729995657,None,3,480.0094589999644,None,480.99297929997556,None,480.99297929997556,None,480.99297929997556,None,480.99297929997556,None,480.99297929997556,None,480.99297929997556,None,0.0009765625,-0.1064453125,1,0,0,second_middle,1.0157220900291577,None,,,MM1000,2023-10-09_13h24.43.276,exp,2021.1.4,60.115626401459494,
,,,,3,0,3,0,,,,,,,,,,,,,,,,,,,,,,,,,,,,,,,,,,,,,,,,,,,,,,,,,,,,,,,,,,,,,,,,487.99092598998106,None,,,,,,,,,,old,482.219691199949,None,482.22556828997915,None,483.7250786999939,None,4,484.72477380000055,None,485.6916038999916,None,485.6916038999916,None,485.6916038999916,None,485.6916038999916,None,485.6916038999916,None,485.6916038999916,None,0.02734375,-0.2763671875,1,0,0,third_right,0.9995964900590479,None,,,MM1000,2023-10-09_13h24.43.276,exp,2021.1.4,60.115626401459494,
,,,,4,0,4,0,,,,,,,,,,,,,,,,,,,,,,,,,,,,,,,,,,,,,,,,,,,,,,,,,,,,,,,,,,,,,,,,492.639140089968,None,,,,,,,,,,old,488.657414199959,None,488.65666818996544,None,490.15654999995604,None,5,491.1562119000009,None,492.1230660000001,None,492.1230660000001,None,492.1230660000001,None,492.1230660000001,None,492.1230660000001,None,492.1230660000001,None,0.0107421875,0.0927734375,1,0,0,first_left,0.9995934899779968,None,,,MM1000,2023-10-09_13h24.43.276,exp,2021.1.4,60.115626401459494,
,,,,5,0,5,0,,,,,,,,,,,,,,,,,,,,,,,,,,,,,,,,,,,,,,,,,,,,,,,,,,,,,,,,,,,,,,,,497.9213972899539,None,,,,,,,,,,old,493.29719459998887,None,493.30531218996623,None,494.80513189994963,None,6,495.8048325999989,None,496.7878849999979,None,496.7878849999979,None,496.7878849999979,None,496.7878849999979,None,496.7878849999979,None,496.7878849999979,None,0.0146484375,0.0400390625,1,0,0,first_left,0.9991290899924934,None,,,MM1000,2023-10-09_13h24.43.276,exp,2021.1.4,60.115626401459494,
,,,,6,0,6,0,,,,,,,,,,,,,,,,,,,,,,,,,,,,,,,,,,,,,,,,,,,,,,,,,,,,,,,,,,,,,,,,502.6195232899569,None,,,,,,,,,,old,498.58606909995433,None,498.58715539000116,None,500.086947499949,None,7,501.08667449996574,None,502.0697083999985,None,502.0697083999985,None,502.0697083999985,None,502.0697083999985,None,502.0697083999985,None,502.0697083999985,None,-0.0029296875,-0.267578125,1,0,0,third_right,0.9995524900150485,None,,,MM1000,2023-10-09_13h24.43.276,exp,2021.1.4,60.115626401459494,
,,,,7,0,7,0,,,,,,,,,,,,,,,,,,,,,,,,,,,,,,,,,,,,,,,,,,,,,,,,,,,,,,,,,,,,,,,,507.151578189974,None,,,,,,,,,,old,503.28576439997414,None,503.2857528899855,None,504.7855531999958,None,8,505.78575659997296,None,506.76886179996654,None,506.76886179996654,None,506.76886179996654,None,506.76886179996654,None,506.76886179996654,None,506.76886179996654,None,0.013671875,-0.1015625,1,0,0,second_middle,1.0158411900047213,None,,,MM1000,2023-10-09_13h24.43.276,exp,2021.1.4,60.115626401459494,
,,,,8,0,8,0,,,,,,,,,,,,,,,,,,,,,,,,,,,,,,,,,,,,,,,,,,,,,,,,,,,,,,,,,,,,,,,,511.6836022899894,None,,,,,,,,,,old,507.8246700000018,None,507.83445637997943,None,509.3342435999657,None,9,510.33393839997007,None,511.30040649999864,None,511.30040649999864,None,511.30040649999864,None,511.30040649999864,None,511.30040649999864,None,511.30040649999864,None,0.0263671875,0.0751953125,1,0,0,first_left,0.9991854900144972,None,,,MM1000,2023-10-09_13h24.43.276,exp,2021.1.4,60.115626401459494,
,,,,9,0,9,0,,,,,,,,,,,,,,,,,,,,,,,,,,,,,,,,,,,,,,,,,,,,,,,,,,,,,,,,,,,,,,,,516.1327946899634,None,,,,,,,,,,old,512.3405839999905,None,512.3498277899868,None,513.8496451999526,None,10,514.8493036999716,None,515.8157295999699,None,515.8157295999699,None,515.8157295999699,None,515.8157295999699,None,515.8157295999699,None,515.8157295999699,None,0.013671875,-0.0703125,1,0,0,second_middle,0.9991376899997704,None,,,MM1000,2023-10-09_13h24.43.276,exp,2021.1.4,60.115626401459494,
,,,,10,0,10,0,,,,,,,,,,,,,,,,,,,,,,,,,,,,,,,,,,,,,,,,,,,,,,,,,,,,,,,,,,,,,,,,520.714271789993,None,,,,,,,,,,old,516.8011640999466,None,516.7984387900157,None,518.3150121999788,None,11,519.3151047999854,None,520.2810622999677,None,520.2810622999677,None,520.2810622999677,None,520.2810622999677,None,520.2810622999677,None,520.2810622999677,None,0.0380859375,0.1201171875,1,0,0,first_left,0.9990583900362253,None,,,MM1000,2023-10-09_13h24.43.276,exp,2021.1.4,60.115626401459494,
,,,,11,0,11,0,,,,,,,,,,,,,,,,,,,,,,,,,,,,,,,,,,,,,,,,,,,,,,,,,,,,,,,,,,,,,,,,525.3300608899968,None,,,,,,,,,,old,521.3812359999865,None,521.3809518900176,None,522.8808209999697,None,12,523.8805175999878,None,524.8464627999929,None,524.8464627999929,None,524.8464627999929,None,524.8464627999929,None,524.8464627999929,None,524.8464627999929,None,0.0244140625,-0.0927734375,1,0,0,second_middle,0.9992693900130689,None,,,MM1000,2023-10-09_13h24.43.276,exp,2021.1.4,60.115626401459494,
,,,,12,0,12,0,,,,,,,,,,,,,,,,,,,,,,,,,,,,,,,,,,,,,,,,,,,,,,,,,,,,,,,,,,,,,,,,529.9621116899594,None,,,,,,,,,,old,525.9864332999568,None,525.9958992900152,None,527.495709699986,None,13,528.4953663999913,None,529.4622412999743,None,529.4622412999743,None,529.4622412999743,None,529.4622412999743,None,529.4622412999743,None,529.4622412999743,None,-0.056640625,-0.3154296875,1,0,0,third_right,0.9996097899856977,None,,,MM1000,2023-10-09_13h24.43.276,exp,2021.1.4,60.115626401459494,
,,,,13,0,13,0,,,,,,,,,,,,,,,,,,,,,,,,,,,,,,,,,,,,,,,,,,,,,,,,,,,,,,,,,,,,,,,,534.6774120900023,None,,,,,,,,,,old,530.6209019999951,None,530.6277878899651,None,532.128136699961,None,14,533.1278654999915,None,534.0941508999676,None,534.0941508999676,None,534.0941508999676,None,534.0941508999676,None,534.0941508999676,None,534.0941508999676,None,0.0068359375,-0.2587890625,1,0,0,third_right,0.9995322899776511,None,,,MM1000,2023-10-09_13h24.43.276,exp,2021.1.4,60.115626401459494,
,,,,14,0,14,0,,,,,,,,,,,,,,,,,,,,,,,,,,,,,,,,,,,,,,,,,,,,,,,,,,,,,,,,,,,,,,,,539.1922626899847,None,,,,,,,,,,old,535.3538172999979,None,535.360204379994,None,536.8595989999594,None,15,537.8593269999838,None,538.8423227999592,None,538.8423227999592,None,538.8423227999592,None,538.8423227999592,None,538.8423227999592,None,538.8423227999592,None,-0.01953125,0.0322265625,1,0,0,first_left,1.0155572899384424,None,,,MM1000,2023-10-09_13h24.43.276,exp,2021.1.4,60.115626401459494,
,,,,15,0,15,0,,,,,,,,,,,,,,,,,,,,,,,,,,,,,,,,,,,,,,,,,,,,,,,,,,,,,,,,,,,,,,,,543.7076399899612,None,,,,,,,,,,old,539.8607008999679,None,539.8584523900005,None,541.3749856999493,None,16,542.3752155999537,None,543.3415714000002,None,543.3415714000002,None,543.3415714000002,None,543.3415714000002,None,543.3415714000002,None,543.3415714000002,None,-0.0146484375,-0.08984375,1,0,0,second_middle,0.9996123900054954,None,,,MM1000,2023-10-09_13h24.43.276,exp,2021.1.4,60.115626401459494,
,,,,16,0,16,0,,,,,,,,,,,,,,,,,,,,,,,,,,,,,,,,,,,,,,,,,,,,,,,,,,,,,,,,,,,,,,,,548.3062248899893,None,,,,,,,,,,old,544.3830401999876,None,544.3908658799949,None,545.8903616999742,None,17,546.8900326999719,None,547.873100799974,None,547.873100799974,None,547.873100799974,None,547.873100799974,None,547.873100799974,None,547.873100799974,None,0.0107421875,0.0693359375,1,0,0,first_left,0.9994999900809489,None,,,MM1000,2023-10-09_13h24.43.276,exp,2021.1.4,60.115626401459494,
,,,,17,0,17,0,,,,,,,,,,,,,,,,,,,,,,,,,,,,,,,,,,,,,,,,,,,,,,,,,,,,,,,,,,,,,,,,552.8383132899704,None,,,,,,,,,,old,548.9759561999817,None,548.9724415899778,None,550.4889716999605,None,18,551.4887502999627,None,552.455051500001,None,552.455051500001,None,552.455051500001,None,552.455051500001,None,552.455051500001,None,552.455051500001,None,0.0029296875,-0.0693359375,1,0,0,second_middle,0.999064389965497,None,,,MM1000,2023-10-09_13h24.43.276,exp,2021.1.4,60.115626401459494,
,,,,18,0,18,0,,,,,,,,,,,,,,,,,,,,,,,,,,,,,,,,,,,,,,,,,,,,,,,,,,,,,,,,,,,,,,,,557.4203268899524,None,,,,,,,,,,old,553.5004953999887,None,553.5045066900144,None,555.0043368999613,None,19,556.0045107999467,None,556.9709029999794,None,556.9709029999794,None,556.9709029999794,None,556.9709029999794,None,556.9709029999794,None,556.9709029999794,None,0.0361328125,0.0498046875,1,0,0,first_left,0.9992009900161065,None,,,MM1000,2023-10-09_13h24.43.276,exp,2021.1.4,60.115626401459494,
,,,,19,0,19,0,,,,,,,,,,,,,,,,,,,,,,,,,,,,,,,,,,,,,,,,,,,,,,,,,,,,,,,,,,,,,,,,562.0189481899666,None,,,,,,,,,,old,558.0821799999685,None,558.0865379900148,None,559.5863309999695,None,20,560.5860235999571,None,561.552906500001,None,561.552906500001,None,561.552906500001,None,561.552906500001,None,561.552906500001,None,561.552906500001,None,-0.0048828125,0.0595703125,1,0,0,first_left,0.9995870899874717,None,,,MM1000,2023-10-09_13h24.43.276,exp,2021.1.4,60.115626401459494,
,,,,,,,,,,,,562.5313181999954,None,570.1999891999876,None,,,,,,,,,,,,,,,,,,,,,,,,,,,,,,,,,,,,,,,,,,,,,,,,,,,,,,,,,,,,,,,,,,,,,,,,,,,,,,,,,,,,,,,,,,,,,,,,,20,images/OBJ_160.png,,,,,,
