EncodingTrials.thisRepN,EncodingTrials.thisTrialN,EncodingTrials.thisN,EncodingTrials.thisIndex,RetrievalTrials.thisRepN,RetrievalTrials.thisTrialN,RetrievalTrials.thisN,RetrievalTrials.thisIndex,EncodingBlock2.thisRepN,EncodingBlock2.thisTrialN,EncodingBlock2.thisN,EncodingBlock2.thisIndex,RetrievalBlock2.thisRepN,RetrievalBlock2.thisTrialN,RetrievalBlock2.thisN,RetrievalBlock2.thisIndex,Instructions.started,Instructions.stopped,fixation.started,fixation.stopped,trialOrder,triplet1,triplet2,triplet3,Triplet1.started,Triplet1.stopped,Triplet2.started,Triplet2.stopped,Triplet3.started,Triplet3.stopped,sound_pop.started,sound_pop.stopped,sound_pop2.started,sound_pop2.stopped,sound_pop3.started,sound_pop3.stopped,Mask.started,Mask.stopped,encodingType,nextTrial,img1.started,img1.stopped,img2.started,img2.stopped,img3.started,img3.stopped,sound_pop4.started,sound_pop4.stopped,sound_pop5.started,sound_pop5.stopped,sound_pop6.started,sound_pop6.stopped,text_2.started,text_2.stopped,methodCheck,Method Clicked,text.started,text.stopped,sameText.started,sameText.stopped,diffText.started,diffText.stopped,leftCL.started,leftCL.stopped,rightCL.started,rightCL.stopped,MethodMouse.x,MethodMouse.y,MethodMouse.leftButton,MethodMouse.midButton,MethodMouse.rightButton,MethodMouse.time,MethodMouse.clicked_name,MethodMouse.started,MethodMouse.stopped,clickedSound.started,clickedSound.stopped,encodingTrials,BlockBreak.started,BlockBreak.stopped,text_4.started,text_4.stopped,start2.keys,start2.rt,start2.started,start2.stopped,retType,retIMG.started,retIMG.stopped,sound_pop7.started,sound_pop7.stopped,question_text.started,question_text.stopped,retTrials,decisionQ_2.started,decisionQ_2.stopped,first_left.started,first_left.stopped,second_middle.started,second_middle.stopped,third_right.started,third_right.stopped,First.started,First.stopped,Second.started,Second.stopped,Third.started,Third.stopped,Order_Position_Response.x,Order_Position_Response.y,Order_Position_Response.leftButton,Order_Position_Response.midButton,Order_Position_Response.rightButton,Order_Position_Response.clicked_name,Order_Position_Response.started,Order_Position_Response.stopped,retrievalTrials,retIMG,Trial_Order,participant,date,expName,psychopyVersion,frameRate,
0,0,0,0,,,,,,,,,,,,,235.05805610000016,None,236.40952400000015,None,RML,images/OBJ_68.png,images/OBJ_171.png,images/OBJ_72.png,238.08147210000016,239.58688170000005,240.0701752,241.56924729999992,242.06911209999998,None,238.0870280499998,None,240.07017545000002,None,242.06911914999995,None,243.56866850000006,None,same,None,245.22646059999988,246.73440720000008,247.21759329999986,248.7171499000001,249.21700109999983,None,245.2348830499995,None,247.2175779499998,None,249.21701775000014,None,250.71659629999976,None,0,['leftCL'],251.71634140000015,None,251.71634140000015,None,251.71634140000015,None,251.71634140000015,None,251.71634140000015,None,-0.197265625,-0.3154296875,1,0,0,1.6127191000000494,leftCL,0.013252449999981764,None,253.33253084999973,None,,,,,,,,,,,,,,,,,,,,,,,,,,,,,,,,,,,,,,,,,,,MM_1001,2023-10-23_11h18.56.554,exp,2021.1.4,60.02927027225553,
1,0,1,0,,,,,,,,,,,,,,,254.00926320000008,None,RML,images/OBJ_120.png,images/OBJ_137.png,images/OBJ_104.png,255.58813789999977,257.09859929999993,257.5812504999999,259.08119020000004,259.5806265000001,None,255.59855689999966,None,257.58123304999975,None,259.5810416499998,None,261.08061439999983,None,same,None,262.65041310000015,264.16268919999993,264.6463600000002,266.14578519999986,266.64577180000015,None,262.64688555,None,264.64639905000007,None,266.64530514999973,None,268.14532659999986,None,0,['leftCL'],269.1445383,None,269.1445383,None,269.1445383,None,269.1445383,None,269.1445383,None,-0.197265625,-0.3134765625,1,0,0,1.2325293999997484,leftCL,0.01637994999964576,None,270.37753394999976,None,,,,,,,,,,,,,,,,,,,,,,,,,,,,,,,,,,,,,,,,,,,MM_1001,2023-10-23_11h18.56.554,exp,2021.1.4,60.02927027225553,
2,0,2,0,,,,,,,,,,,,,,,271.0489867000001,None,LMR,images/OBJ_170.png,images/OBJ_149.png,images/OBJ_139.png,272.64089490000015,274.14346509999996,274.6265693999999,276.12587889999986,276.62572809999983,None,272.6440924999999,None,274.6267966499999,None,276.62619224999975,None,278.12529940000013,None,same,None,279.70327240000006,281.20818789999976,281.6913777999998,283.1904866,283.6907640999998,None,279.7086035999998,None,281.6914146499998,None,283.69080755,None,285.1898796999999,None,0,['leftCL'],286.1895969000002,None,286.1895969000002,None,286.1895969000002,None,286.1895969000002,None,286.1895969000002,None,-0.1953125,-0.3125,1,0,0,1.133149599999797,leftCL,0.016369350000331906,None,287.32268995,None,,,,,,,,,,,,,,,,,,,,,,,,,,,,,,,,,,,,,,,,,,,MM_1001,2023-10-23_11h18.56.554,exp,2021.1.4,60.02927027225553,
3,0,3,0,,,,,,,,,,,,,,,288.00033410000015,None,RML,images/OBJ_13.png,images/OBJ_157.png,images/OBJ_44.png,289.5800828000001,291.08866579999994,291.57187569999996,293.07092920000014,293.57078219999994,None,289.58871649999963,None,291.57184164999984,None,293.5707978499999,None,295.0703407000001,None,same,None,296.6447956000002,298.15274249999993,298.6364472,300.13596210000014,300.6357542999999,None,296.6531907999999,None,298.63648174999975,None,300.6353735500001,None,302.1354731000001,None,0,['leftCL'],303.13518710000017,None,303.13518710000017,None,303.13518710000017,None,303.13518710000017,None,303.13518710000017,None,-0.1767578125,-0.3154296875,1,0,0,0.9328250999997181,leftCL,0.016374549999909505,None,304.0677641500001,None,,,,,,,,,,,,,,,,,,,,,,,,,,,,,,,,,,,,,,,,,,,MM_1001,2023-10-23_11h18.56.554,exp,2021.1.4,60.02927027225553,
4,0,4,0,,,,,,,,,,,,,,,304.7507510999999,None,RML,images/OBJ_59.png,images/OBJ_115.png,images/OBJ_36.png,306.3228995999998,307.8332940999999,308.31650039999977,309.81651999999985,310.3159234999998,None,306.3343134999997,None,308.3165162499999,None,310.3164044499999,None,311.8154776000001,None,same,None,313.3849737999999,314.8983121000001,315.38159670000005,316.88114289999976,317.38051069999983,None,313.38213834999965,None,315.3814387500001,None,317.3805368499997,None,318.88008409999975,None,0,['leftCL'],319.8798062000001,None,319.8798062000001,None,319.8798062000001,None,319.8798062000001,None,319.8798062000001,None,-0.1767578125,-0.318359375,1,0,0,1.7326308000001518,leftCL,0.01637295000045924,None,321.6127634499998,None,,,,,,,,,,,,,,,,,,,,,,,,,,,,,,,,,,,,,,,,,,,MM_1001,2023-10-23_11h18.56.554,exp,2021.1.4,60.02927027225553,
5,0,5,0,,,,,,,,,,,,,,,322.2871500000001,None,LMR,images/OBJ_48.png,images/OBJ_32.png,images/OBJ_78.png,323.87831860000006,325.3786755000001,325.8784163,327.3781027,327.8779245999999,None,323.8786651999996,None,325.8784298499999,None,327.8779328499999,None,329.37704619999977,None,same,None,330.9535673999999,332.45944069999996,332.94316019999997,334.44220270000005,334.9420771,None,330.9603162999999,None,332.94318285,None,334.94210204999985,None,336.4420491000001,None,0,['leftCL'],337.4418015000001,None,337.4418015000001,None,337.4418015000001,None,337.4418015000001,None,337.4418015000001,None,-0.1767578125,-0.32421875,1,0,0,1.7657359999998334,leftCL,0.01637544999994134,None,339.2075144499999,None,,,,,,,,,,,,,,,,,,,,,,,,,,,,,,,,,,,,,,,,,,,MM_1001,2023-10-23_11h18.56.554,exp,2021.1.4,60.02927027225553,
6,0,6,0,,,,,,,,,,,,,,,339.8763611999998,None,MLR,images/OBJ_204.png,images/OBJ_164.png,images/OBJ_195.png,341.4709757999999,342.9731628999998,343.45674069999995,344.9562704,345.4560839999999,None,341.4742205999998,None,343.4566413500001,None,345.4556905499998,None,346.95572089999996,None,same,None,348.5270257000002,350.0382273,350.5213511000002,352.02091919999975,352.5207636,None,348.53853899999984,None,350.5212371500001,None,352.52065024999996,None,354.0203044,None,0,['leftCL'],355.02003590000004,None,355.02003590000004,None,355.02003590000004,None,355.02003590000004,None,355.02003590000004,None,-0.1767578125,-0.3232421875,1,0,0,1.549608199999966,leftCL,0.016378550000354153,None,356.56912744999994,None,,,,,,,,,,,,,,,,,,,,,,,,,,,,,,,,,,,,,,,,,,,MM_1001,2023-10-23_11h18.56.554,exp,2021.1.4,60.02927027225553,
7,0,7,0,,,,,,,,,,,,,,,357.24161809999987,None,LMR,images/OBJ_168.png,images/OBJ_88.png,images/OBJ_35.png,358.82971829999997,360.33517429999984,360.81823140000006,362.3177961000001,362.8173029999998,None,358.83565949999974,None,360.81835515000006,None,362.81779705,None,364.3172134000001,None,same,None,365.8901498,367.39974459999985,367.8829574000001,369.3820488000001,369.88190209999993,None,365.89971719999966,None,367.8828384499997,None,369.8818997499997,None,371.3814720999999,None,0,['leftCL'],372.38166420000016,None,372.38166420000016,None,372.38166420000016,None,372.38166420000016,None,372.38166420000016,None,-0.1767578125,-0.32421875,1,0,0,1.816158799999812,leftCL,0.016373050000311196,None,374.19779735000014,None,,,,,,,,,,,,,,,,,,,,,,,,,,,,,,,,,,,,,,,,,,,MM_1001,2023-10-23_11h18.56.554,exp,2021.1.4,60.02927027225553,
8,0,8,0,,,,,,,,,,,,,,,374.8755734000001,None,RLM,images/OBJ_22.png,images/OBJ_113.png,images/OBJ_14.png,376.4573578999998,377.9628601999998,378.4460583,379.94610729999977,380.4458684000001,None,376.4638327999998,None,378.4460642499998,None,380.44596515000006,None,381.9451291999999,None,same,None,383.5207277999998,385.0274577,385.5112035000002,387.0105690999999,387.51057059999994,None,383.5279242999997,None,385.51105795000007,None,387.51058885000015,None,389.00966930000004,None,0,['leftCL'],390.00983989999986,None,390.00983989999986,None,390.00983989999986,None,390.00983989999986,None,390.00983989999986,None,-0.17578125,-0.30859375,1,0,0,1.2830322999998316,leftCL,0.016339549999884184,None,391.2923520499998,None,,,,,,,,,,,,,,,,,,,,,,,,,,,,,,,,,,,,,,,,,,,MM_1001,2023-10-23_11h18.56.554,exp,2021.1.4,60.02927027225553,
9,0,9,0,,,,,,,,,,,,,,,391.9630133999999,None,RML,images/OBJ_81.png,images/OBJ_112.png,images/OBJ_5.png,393.5523601,395.05836610000006,395.541475,397.04106009999987,397.5409841999999,None,393.55839589999977,None,395.54158784999976,None,397.54100255,None,399.04055100000005,None,diff,MRL,400.6169678000001,402.1224739999998,402.60571249999975,404.10575400000016,404.60560239999995,None,400.6233595999999,None,402.60606985,None,404.6051296499999,None,406.1046587000001,None,1,['rightCL'],407.1043743,None,407.1043743,None,407.1043743,None,407.1043743,None,407.1043743,None,0.2705078125,-0.3193359375,1,0,0,2.0988962000001266,rightCL,0.016370950000236917,None,409.20375185000006,None,,,,,,,,,,,,,,,,,,,,,,,,,,,,,,,,,,,,,,,,,,,MM_1001,2023-10-23_11h18.56.554,exp,2021.1.4,60.02927027225553,
10,0,10,0,,,,,,,,,,,,,,,409.88687690000006,None,RML,images/OBJ_166.png,images/OBJ_105.png,images/OBJ_114.png,411.4608997999999,412.9698792999998,413.4525058999998,414.9520640999999,415.45196639999995,None,411.4702145999997,None,413.4525077499997,None,415.4519440499998,None,416.95151510000005,None,same,MRL,418.5198283,420.03445759999977,420.5176244999998,422.0170807999998,422.5170484999999,None,418.51771964999966,None,420.51766455,None,422.5165448500001,None,424.0161503999998,None,0,['leftCL'],425.0163459999999,None,425.0163459999999,None,425.0163459999999,None,425.0163459999999,None,425.0163459999999,None,-0.2548828125,-0.3623046875,1,0,0,2.04952110000022,leftCL,0.01637715000015305,None,427.06529614999994,None,,,,,,,,,,,,,,,,,,,,,,,,,,,,,,,,,,,,,,,,,,,MM_1001,2023-10-23_11h18.56.554,exp,2021.1.4,60.02927027225553,
11,0,11,0,,,,,,,,,,,,,,,427.7329122000001,None,RLM,images/OBJ_28.png,images/OBJ_196.png,images/OBJ_119.png,429.3229467000001,430.83128929999975,431.3140143999999,432.8140662999999,433.3134334000001,None,429.3313235999996,None,431.3140108500001,None,433.3134327500001,None,434.81305569999995,None,same,MRL,436.3833052,437.89590799999996,438.3619478999999,439.8620013,440.37852269999985,None,436.39582179999996,None,438.36195855,None,440.3785313499997,None,441.87807310000017,None,1,['rightCL'],442.8778271000001,None,442.8778271000001,None,442.8778271000001,None,442.8778271000001,None,442.8778271000001,None,0.2265625,-0.3251953125,1,0,0,3.082460000000083,rightCL,0.01637734999985696,None,445.95975034999987,None,,,,,,,,,,,,,,,,,,,,,,,,,,,,,,,,,,,,,,,,,,,MM_1001,2023-10-23_11h18.56.554,exp,2021.1.4,60.02927027225553,
12,0,12,0,,,,,,,,,,,,,,,446.6374636999999,None,LMR,images/OBJ_69.png,images/OBJ_140.png,images/OBJ_150.png,448.2248147,449.7252979,450.22517389999985,451.72520399999985,452.2250263000001,None,448.22630759999964,None,450.2251684500001,None,452.2250129499998,None,453.7246389000002,None,diff,RML,455.30110090000016,456.8069386000002,457.29024290000007,458.78970119999985,459.28921660000015,None,455.30701579999976,None,457.28978635000016,None,459.28967874999984,None,460.78875070000004,None,0,['leftCL'],461.788943,None,461.788943,None,461.788943,None,461.788943,None,461.788943,None,-0.2138671875,-0.259765625,1,0,0,2.015664000000015,leftCL,0.016379350000079285,None,463.8045761499997,None,,,,,,,,,,,,,,,,,,,,,,,,,,,,,,,,,,,,,,,,,,,MM_1001,2023-10-23_11h18.56.554,exp,2021.1.4,60.02927027225553,
13,0,13,0,,,,,,,,,,,,,,,464.4852154,None,RLM,images/OBJ_85.png,images/OBJ_163.png,images/OBJ_158.png,466.0622693999999,467.57057429999986,468.0537958,469.5533608999999,470.0531989000001,None,466.0711525999997,None,468.0536570499998,None,470.0530891499997,None,471.55279329999985,None,same,RML,473.14052379999976,474.6518818999998,475.13496299999997,476.63462560000016,477.1343674999998,None,473.13559405,None,475.13499365,None,477.13449995000013,None,478.6340513,None,0,['leftCL'],479.6337735000002,None,479.6337735000002,None,479.6337735000002,None,479.6337735000002,None,479.6337735000002,None,-0.2138671875,-0.259765625,1,0,0,2.19911379999985,leftCL,0.016380049999952462,None,481.83267114999984,None,,,,,,,,,,,,,,,,,,,,,,,,,,,,,,,,,,,,,,,,,,,MM_1001,2023-10-23_11h18.56.554,exp,2021.1.4,60.02927027225553,
14,0,14,0,,,,,,,,,,,,,,,482.50689169999987,None,LMR,images/OBJ_136.png,images/OBJ_54.png,images/OBJ_41.png,484.08871210000007,485.5982060000001,486.0813714000001,487.5814436999999,488.08128669999996,None,484.0986795999999,None,486.08188005000005,None,488.08123674999973,None,489.5804014999999,None,same,RML,491.1549943,492.6632866,493.14648579999994,494.6460621000001,495.1458154000002,None,491.16324669999966,None,493.1465092499997,None,495.14590104999974,None,496.6449781000001,None,0,['leftCL'],497.6447122999998,None,497.6447122999998,None,497.6447122999998,None,497.6447122999998,None,497.6447122999998,None,-0.2138671875,-0.259765625,1,0,0,0.6161387000001923,leftCL,0.016379249999772583,None,498.26127975,None,,,,,,,,,,,,,,,,,,,,,,,,,,,,,,,,,,,,,,,,,,,MM_1001,2023-10-23_11h18.56.554,exp,2021.1.4,60.02927027225553,
15,0,15,0,,,,,,,,,,,,,,,498.93751040000006,None,LMR,images/OBJ_37.png,images/OBJ_86.png,images/OBJ_66.png,500.51414780000005,502.02711610000006,502.5103687000001,504.0094992999998,504.5098994,None,500.51105864999977,None,502.51044874999974,None,504.50973985000013,None,506.0089254999998,None,diff,RML,507.5746730999999,509.07469649999985,509.5745388999999,511.07459119999976,511.5744445999999,None,507.57522214999995,None,509.5750264499997,None,511.5743454499997,None,513.0735042000001,None,1,['rightCL'],514.0732684,None,514.0732684,None,514.0732684,None,514.0732684,None,514.0732684,None,0.166015625,-0.298828125,1,0,0,3.0663408999998865,rightCL,0.01637655000013183,None,517.1395547500001,None,,,,,,,,,,,,,,,,,,,,,,,,,,,,,,,,,,,,,,,,,,,MM_1001,2023-10-23_11h18.56.554,exp,2021.1.4,60.02927027225553,
16,0,16,0,,,,,,,,,,,,,,,517.8175279000002,None,MRL,images/OBJ_38.png,images/OBJ_56.png,images/OBJ_203.png,519.3977246,520.9045658999999,521.3877575000001,522.8873343999999,523.3871632,None,519.4054957000001,None,521.3877798499998,None,523.3876852499998,None,524.8872534000002,None,diff,LMR,526.4580814999999,527.9691935000001,528.4523445,529.9519279000001,530.4518352999999,None,526.4696889999998,None,528.4523458499998,None,530.45179345,None,531.9513388,None,0,['leftCL'],532.9510463000001,None,532.9510463000001,None,532.9510463000001,None,532.9510463000001,None,532.9510463000001,None,-0.158203125,-0.3095703125,1,0,0,2.049592500000017,leftCL,0.01637265000044863,None,535.0010315499999,None,,,,,,,,,,,,,,,,,,,,,,,,,,,,,,,,,,,,,,,,,,,MM_1001,2023-10-23_11h18.56.554,exp,2021.1.4,60.02927027225553,
17,0,17,0,,,,,,,,,,,,,,,535.6755357000002,None,LMR,images/OBJ_126.png,images/OBJ_75.png,images/OBJ_135.png,537.2642697000001,538.7660646999998,539.2663401,540.7659653999999,541.2656167999999,None,537.2665394999997,None,539.2658955500001,None,541.26530555,None,542.7649366999999,None,same,LMR,544.3422881000001,545.8478009999999,546.330539,547.8304219000001,548.3304342000001,None,544.3477069999997,None,546.3305001499998,None,548.3303015500001,None,549.8294971,None,0,['leftCL'],550.8292194999999,None,550.8292194999999,None,550.8292194999999,None,550.8292194999999,None,550.8292194999999,None,-0.15234375,-0.310546875,1,0,0,1.6328174000000217,leftCL,0.016328549999343522,None,552.4620938500002,None,,,,,,,,,,,,,,,,,,,,,,,,,,,,,,,,,,,,,,,,,,,MM_1001,2023-10-23_11h18.56.554,exp,2021.1.4,60.02927027225553,
18,0,18,0,,,,,,,,,,,,,,,553.1409282999998,None,RLM,images/OBJ_84.png,images/OBJ_19.png,images/OBJ_57.png,554.7286940999998,556.2280246,556.7274742,558.2274392999998,558.7274130000001,None,554.7281296999997,None,556.72799025,None,558.7274023499999,None,560.2269537000002,None,diff,MRL,561.8067408000002,563.3089319000001,563.7925784999998,565.2921579999997,565.7919959999999,None,561.8097928999998,None,563.7924544500002,None,565.7919046500001,None,567.2915726000001,None,1,['rightCL'],568.2912787,None,568.2912787,None,568.2912787,None,568.2912787,None,568.2912787,None,0.2080078125,-0.2919921875,1,0,0,2.7489331000001584,rightCL,0.016378750000058062,None,571.04004945,None,,,,,,,,,,,,,,,,,,,,,,,,,,,,,,,,,,,,,,,,,,,MM_1001,2023-10-23_11h18.56.554,exp,2021.1.4,60.02927027225553,
19,0,19,0,,,,,,,,,,,,,,,571.7061858000002,None,LMR,images/OBJ_109.png,images/OBJ_92.png,images/OBJ_173.png,573.2863520999999,574.7892453,575.2892240000001,576.7886742999999,577.2885461000001,None,573.2895028999999,None,575.2892550500001,None,577.2886970499999,None,578.7882484000002,None,same,MRL,580.3666456000001,581.8701821999998,582.3533625,583.8534260000001,584.3527835999998,None,580.371018,None,582.3533627500001,None,584.3528063499998,None,585.8528187000002,None,0,['leftCL'],586.8520803000001,None,586.8520803000001,None,586.8520803000001,None,586.8520803000001,None,586.8520803000001,None,-0.173828125,-0.2900390625,1,0,0,2.9991374000001088,leftCL,0.016364449999855424,None,589.8512254500001,None,,,,,,,,,,,,,,,,,,,,,,,,,,,,,,,,,,,,,,,,,,,MM_1001,2023-10-23_11h18.56.554,exp,2021.1.4,60.02927027225553,
20,0,20,0,,,,,,,,,,,,,,,590.5212548999998,None,LMR,images/OBJ_9.png,images/OBJ_64.png,images/OBJ_33.png,592.1023377000001,593.6171605999998,594.1004358999999,595.5998708000002,596.0998832999999,None,592.10060765,None,594.1003032499998,None,596.09936565,None,597.5989433999998,None,same,MRL,599.1626243000001,600.6651805000001,601.1645813999999,602.6644889999998,603.164444,None,599.1651305499997,None,601.1650111499998,None,603.16447475,None,604.6640195999998,None,0,['leftCL'],605.6635995000001,None,605.6635995000001,None,605.6635995000001,None,605.6635995000001,None,605.6635995000001,None,-0.1728515625,-0.2890625,1,0,0,1.649587700000211,leftCL,0.016376950000449142,None,607.3132862500001,None,,,,,,,,,,,,,,,,,,,,,,,,,,,,,,,,,,,,,,,,,,,MM_1001,2023-10-23_11h18.56.554,exp,2021.1.4,60.02927027225553,
21,0,21,0,,,,,,,,,,,,,,,607.9902858,None,RML,images/OBJ_209.png,images/OBJ_79.png,images/OBJ_138.png,609.5638998999998,611.0788162999997,611.5614925999998,613.0615662999999,613.5609067,None,609.56266815,None,611.5615088499999,None,613.5609422500002,None,615.0604936,None,same,MRL,616.6252337000001,618.1263174000001,618.6261091000001,620.1257602000001,620.6255566999998,None,616.62680415,None,618.6261581499998,None,620.62554095,None,622.1256628000001,None,1,['rightCL'],623.1253256,None,623.1253256,None,623.1253256,None,623.1253256,None,623.1253256,None,0.216796875,-0.2646484375,1,0,0,1.7996342999999797,rightCL,0.01638374999993175,None,624.9243786500001,None,,,,,,,,,,,,,,,,,,,,,,,,,,,,,,,,,,,,,,,,,,,MM_1001,2023-10-23_11h18.56.554,exp,2021.1.4,60.02927027225553,
22,0,22,0,,,,,,,,,,,,,,,625.6031244999999,None,LRM,images/OBJ_18.png,images/OBJ_26.png,images/OBJ_58.png,627.1737276999997,628.6735914999999,629.1735534,630.6730183,631.1730091,None,627.17367825,None,629.17359695,None,631.1724614499999,None,632.672532,None,same,MRL,634.2526988999998,635.7548772999999,636.2548127999999,637.7538758999999,638.2537630000002,None,634.2553320499999,None,636.2548319500002,None,638.2542409500002,None,639.7538224,None,0,['leftCL'],640.7534208000002,None,640.7534208000002,None,640.7534208000002,None,640.7534208000002,None,640.7534208000002,None,-0.150390625,-0.3203125,1,0,0,2.082330400000046,leftCL,0.016380950000439043,None,642.8357769499999,None,,,,,,,,,,,,,,,,,,,,,,,,,,,,,,,,,,,,,,,,,,,MM_1001,2023-10-23_11h18.56.554,exp,2021.1.4,60.02927027225553,
23,0,23,0,,,,,,,,,,,,,,,643.5139946999998,None,LMR,images/OBJ_134.png,images/OBJ_80.png,images/OBJ_71.png,645.0840923000001,646.5850131000002,647.0850129999999,648.5845792,649.0839550999999,None,645.08552605,None,647.0848999499999,None,649.0844272499999,None,650.5835164999999,None,same,MRL,652.1450340000001,653.6492730999998,654.1330146,655.6324012,656.1323659999998,None,652.15010035,None,654.1325001499999,None,656.1324040499999,None,657.6318514999998,None,0,['leftCL'],658.6316315999998,None,658.6316315999998,None,658.6316315999998,None,658.6316315999998,None,658.6316315999998,None,-0.1796875,-0.3095703125,1,0,0,5.265173199999936,leftCL,0.016370549999919604,None,663.8968244500002,None,,,,,,,,,,,,,,,,,,,,,,,,,,,,,,,,,,,,,,,,,,,MM_1001,2023-10-23_11h18.56.554,exp,2021.1.4,60.02927027225553,
24,0,24,0,,,,,,,,,,,,,,,664.5714825999999,None,MRL,images/OBJ_197.png,images/OBJ_47.png,images/OBJ_183.png,666.1501361999999,667.6622293999999,668.1288786,669.6284510999999,670.1449526000001,None,666.1623859999997,None,668.12877725,None,670.1449657500002,None,671.6440386999998,None,same,MRL,673.2113665000002,674.7269157000001,675.2101662999999,676.7096265999999,677.2095524000001,None,673.2106757499998,None,675.21003625,None,677.20908895,None,678.7091642,None,0,['leftCL'],679.7084163999998,None,679.7084163999998,None,679.7084163999998,None,679.7084163999998,None,679.7084163999998,None,-0.169921875,-0.255859375,1,0,0,1.2997199999999793,leftCL,0.01637864999975136,None,681.00853925,None,,,,,,,,,,,,,,,,,,,,,,,,,,,,,,,,,,,,,,,,,,,MM_1001,2023-10-23_11h18.56.554,exp,2021.1.4,60.02927027225553,
,,,,,,,,,,,,,,,,,,,,,,,,,,,,,,,,,,,,,,,,,,,,,,,,,,,,,,,,,,,,,,,,,,,,,,,,,,,,,25,681.5143033999998,None,None,None,space,448.7110266999998,None,None,,,,,,,,,,,,,,,,,,,,,,,,,,,,,,,,,,MM_1001,2023-10-23_11h18.56.554,exp,2021.1.4,60.02927027225553,
,,,,0,0,0,0,,,,,,,,,,,,,,,,,,,,,,,,,,,,,,,,,,,,,,,,,,,,,,,,,,,,,,,,,,,,,,,,,,,,688.4391914500002,None,,,,,,,,,,old,683.7613323,None,683.7578497499998,None,685.2734049000001,None,1,686.2731396999998,None,687.2395483,None,687.2395483,None,687.2395483,None,687.2395483,None,687.2395483,None,687.2395483,None,0.0322265625,-0.052734375,1,0,0,second_middle,0.9990841499993621,None,,,,MM_1001,2023-10-23_11h18.56.554,exp,2021.1.4,60.02927027225553,
,,,,1,0,1,0,,,,,,,,,,,,,,,,,,,,,,,,,,,,,,,,,,,,,,,,,,,,,,,,,,,,,,,,,,,,,,,,,,,,694.5207379499998,None,,,,,,,,,,old,689.1289716000001,None,689.1391103499994,None,690.6384936,None,2,691.6385952999999,None,692.6051253999999,None,692.6051253999999,None,692.6051253999999,None,692.6051253999999,None,692.6051253999999,None,692.6051253999999,None,0.03125,0.126953125,1,0,0,first_left,0.9991635500000484,None,,,,MM_1001,2023-10-23_11h18.56.554,exp,2021.1.4,60.02927027225553,
,,,,2,0,2,0,,,,,,,,,,,,,,,,,,,,,,,,,,,,,,,,,,,,,,,,,,,,,,,,,,,,,,,,,,,,,,,,,,,,700.5690009499999,None,,,,,,,,,,old,695.2155990000001,None,695.2211356499996,None,696.7200515,None,3,697.7202628999999,None,698.6861586,None,698.6861586,None,698.6861586,None,698.6861586,None,698.6861586,None,698.6861586,None,0.03125,0.12890625,1,0,0,first_left,1.0159334500003752,None,,,,MM_1001,2023-10-23_11h18.56.554,exp,2021.1.4,60.02927027225553,
,,,,3,0,3,0,,,,,,,,,,,,,,,,,,,,,,,,,,,,,,,,,,,,,,,,,,,,,,,,,,,,,,,,,,,,,,,,,,,,706.2007136500001,None,,,,,,,,,,old,701.2615581,None,701.2693973499998,None,702.7687894000001,None,4,703.7685557,None,704.7510601999998,None,704.7510601999998,None,704.7510601999998,None,704.7510601999998,None,704.7510601999998,None,704.7510601999998,None,-0.0439453125,-0.3173828125,1,0,0,third_right,0.9990728500001751,None,,,,MM_1001,2023-10-23_11h18.56.554,exp,2021.1.4,60.02927027225553,
,,,,4,0,4,0,,,,,,,,,,,,,,,,,,,,,,,,,,,,,,,,,,,,,,,,,,,,,,,,,,,,,,,,,,,,,,,,,,,,711.2992153499999,None,,,,,,,,,,old,706.8885452,None,706.8844184,None,708.4005185000001,None,5,709.3996963,None,710.3661379,None,710.3661379,None,710.3661379,None,710.3661379,None,710.3661379,None,710.3661379,None,0.037109375,-0.1591796875,1,0,0,second_middle,1.0159853499999372,None,,,,MM_1001,2023-10-23_11h18.56.554,exp,2021.1.4,60.02927027225553,
,,,,5,0,5,0,,,,,,,,,,,,,,,,,,,,,,,,,,,,,,,,,,,,,,,,,,,,,,,,,,,,,,,,,,,,,,,,,,,,716.9641821499999,None,,,,,,,,,,old,711.9990170000001,None,711.9991042499995,None,713.4984872,None,6,714.4981539999999,None,715.4651131,None,715.4651131,None,715.4651131,None,715.4651131,None,715.4651131,None,715.4651131,None,0.025390625,-0.154296875,1,0,0,second_middle,0.9996747499999401,None,,,,MM_1001,2023-10-23_11h18.56.554,exp,2021.1.4,60.02927027225553,
,,,,6,0,6,0,,,,,,,,,,,,,,,,,,,,,,,,,,,,,,,,,,,,,,,,,,,,,,,,,,,,,,,,,,,,,,,,,,,,722.6792234499999,None,,,,,,,,,,old,717.6472699000001,None,717.6478190999997,None,719.1468841999999,None,7,720.1469551,None,721.1134025000001,None,721.1134025000001,None,721.1134025000001,None,721.1134025000001,None,721.1134025000001,None,721.1134025000001,None,0.037109375,0.04296875,1,0,0,first_left,0.9991799500003253,None,,,,MM_1001,2023-10-23_11h18.56.554,exp,2021.1.4,60.02927027225553,
,,,,7,0,7,0,,,,,,,,,,,,,,,,,,,,,,,,,,,,,,,,,,,,,,,,,,,,,,,,,,,,,,,,,,,,,,,,,,,,728.9773919499999,None,,,,,,,,,,old,723.3780342999999,None,723.3794667499996,None,724.8785376999999,None,8,725.8787416999999,None,726.8449909999999,None,726.8449909999999,None,726.8449909999999,None,726.8449909999999,None,726.8449909999999,None,726.8449909999999,None,0.03515625,-0.3359375,1,0,0,third_right,0.9995043500002794,None,,,,MM_1001,2023-10-23_11h18.56.554,exp,2021.1.4,60.02927027225553,
,,,,8,0,8,0,,,,,,,,,,,,,,,,,,,,,,,,,,,,,,,,,,,,,,,,,,,,,,,,,,,,,,,,,,,,,,,,,,,,735.17554935,None,,,,,,,,,,old,729.6627143000001,None,729.6611290999999,None,731.1766935999999,None,9,732.1764309999999,None,733.1428501,None,733.1428501,None,733.1428501,None,733.1428501,None,733.1428501,None,733.1428501,None,0.03515625,-0.333984375,1,0,0,third_right,0.9992364500003532,None,,,,MM_1001,2023-10-23_11h18.56.554,exp,2021.1.4,60.02927027225553,
,,,,9,0,9,0,,,,,,,,,,,,,,,,,,,,,,,,,,,,,,,,,,,,,,,,,,,,,,,,,,,,,,,,,,,,,,,,,,,,741.27379935,None,,,,,,,,,,old,735.8692179999998,None,735.8758407499998,None,737.3749158,None,10,738.3746286,None,739.3409913,None,739.3409913,None,739.3409913,None,739.3409913,None,739.3409913,None,739.3409913,None,0.048828125,-0.0966796875,1,0,0,second_middle,1.015256650000083,None,,,,MM_1001,2023-10-23_11h18.56.554,exp,2021.1.4,60.02927027225553,
,,,,10,0,10,0,,,,,,,,,,,,,,,,,,,,,,,,,,,,,,,,,,,,,,,,,,,,,,,,,,,,,,,,,,,,,,,,,,,,746.6222352499999,None,,,,,,,,,,old,741.9662352999999,None,741.9742440499998,None,743.4735000000001,None,11,744.4732038000002,None,745.4397282,None,745.4397282,None,745.4397282,None,745.4397282,None,745.4397282,None,745.4397282,None,0.048828125,-0.0966796875,1,0,0,second_middle,0.9992257500002779,None,,,,MM_1001,2023-10-23_11h18.56.554,exp,2021.1.4,60.02927027225553,
,,,,11,0,11,0,,,,,,,,,,,,,,,,,,,,,,,,,,,,,,,,,,,,,,,,,,,,,,,,,,,,,,,,,,,,,,,,,,,,751.6878896500002,None,,,,,,,,,,old,747.3228085999999,None,747.3221281499995,None,748.8387202999997,None,12,749.8384347000001,None,750.8042903,None,750.8042903,None,750.8042903,None,750.8042903,None,750.8042903,None,750.8042903,None,0.0068359375,0.1552734375,1,0,0,first_left,1.0153244500002074,None,,,,MM_1001,2023-10-23_11h18.56.554,exp,2021.1.4,60.02927027225553,
,,,,12,0,12,0,,,,,,,,,,,,,,,,,,,,,,,,,,,,,,,,,,,,,,,,,,,,,,,,,,,,,,,,,,,,,,,,,,,,757.6523226499999,None,,,,,,,,,,old,752.3810699999999,None,752.3873282499998,None,753.8872433000001,None,13,754.8869467,None,755.8528660000002,None,755.8528660000002,None,755.8528660000002,None,755.8528660000002,None,755.8528660000002,None,755.8528660000002,None,-0.0126953125,-0.30859375,1,0,0,third_right,0.999202250000053,None,,,,MM_1001,2023-10-23_11h18.56.554,exp,2021.1.4,60.02927027225553,
,,,,13,0,13,0,,,,,,,,,,,,,,,,,,,,,,,,,,,,,,,,,,,,,,,,,,,,,,,,,,,,,,,,,,,,,,,,,,,,763.73444445,None,,,,,,,,,,old,758.3493269,None,758.3526391499998,None,759.8517152,None,14,760.8518798999999,None,761.8182864999999,None,761.8182864999999,None,761.8182864999999,None,761.8182864999999,None,761.8182864999999,None,761.8182864999999,None,0.01953125,0.1337890625,1,0,0,first_left,0.9992023500003597,None,,,,MM_1001,2023-10-23_11h18.56.554,exp,2021.1.4,60.02927027225553,
,,,,14,0,14,0,,,,,,,,,,,,,,,,,,,,,,,,,,,,,,,,,,,,,,,,,,,,,,,,,,,,,,,,,,,,,,,,,,,,770.9318194500001,None,,,,,,,,,,old,764.4255177,None,764.4338129499996,None,765.9337611999999,None,15,766.9335025999999,None,767.8993663000001,None,767.8993663000001,None,767.8993663000001,None,767.8993663000001,None,767.8993663000001,None,767.8993663000001,None,-0.068359375,-0.3369140625,1,0,0,third_right,0.9991735499997958,None,,,,MM_1001,2023-10-23_11h18.56.554,exp,2021.1.4,60.02927027225553,
,,,,15,0,15,0,,,,,,,,,,,,,,,,,,,,,,,,,,,,,,,,,,,,,,,,,,,,,,,,,,,,,,,,,,,,,,,,,,,,776.8634602500001,None,,,,,,,,,,old,771.6225574999999,None,771.6322652499997,None,773.1316394999999,None,16,774.1313360999998,None,775.0976958000001,None,775.0976958000001,None,775.0976958000001,None,775.0976958000001,None,775.0976958000001,None,775.0976958000001,None,0.0126953125,-0.169921875,1,0,0,second_middle,0.9996406500004014,None,,,,MM_1001,2023-10-23_11h18.56.554,exp,2021.1.4,60.02927027225553,
,,,,16,0,16,0,,,,,,,,,,,,,,,,,,,,,,,,,,,,,,,,,,,,,,,,,,,,,,,,,,,,,,,,,,,,,,,,,,,,782.81173115,None,,,,,,,,,,old,777.5589994000002,None,777.5638381499997,None,779.0632541999998,None,17,780.0629506999999,None,781.0288485000001,None,781.0288485000001,None,781.0288485000001,None,781.0288485000001,None,781.0288485000001,None,781.0288485000001,None,0.0087890625,0.0673828125,1,0,0,first_left,0.9991533499996876,None,,,,MM_1001,2023-10-23_11h18.56.554,exp,2021.1.4,60.02927027225553,
,,,,17,0,17,0,,,,,,,,,,,,,,,,,,,,,,,,,,,,,,,,,,,,,,,,,,,,,,,,,,,,,,,,,,,,,,,,,,,,789.7263823499998,None,,,,,,,,,,old,783.5072381999998,None,783.5116288499997,None,785.0114812000002,None,18,786.0107631999999,None,786.9776978,None,786.9776978,None,786.9776978,None,786.9776978,None,786.9776978,None,786.9776978,None,0.029296875,-0.1533203125,1,0,0,second_middle,0.9997247499995865,None,,,,MM_1001,2023-10-23_11h18.56.554,exp,2021.1.4,60.02927027225553,
,,,,18,0,18,0,,,,,,,,,,,,,,,,,,,,,,,,,,,,,,,,,,,,,,,,,,,,,,,,,,,,,,,,,,,,,,,,,,,,795.54157665,None,,,,,,,,,,old,790.4312055999999,None,790.4266595499997,None,791.9428317000002,None,19,792.9425535999999,None,793.9084457999998,None,793.9084457999998,None,793.9084457999998,None,793.9084457999998,None,793.9084457999998,None,793.9084457999998,None,0.0283203125,-0.1513671875,1,0,0,second_middle,0.9991791499996907,None,,,,MM_1001,2023-10-23_11h18.56.554,exp,2021.1.4,60.02927027225553,
,,,,19,0,19,0,,,,,,,,,,,,,,,,,,,,,,,,,,,,,,,,,,,,,,,,,,,,,,,,,,,,,,,,,,,,,,,,,,,,802.3061051499999,None,,,,,,,,,,old,796.2388907,None,796.2412450499995,None,797.7406543000002,None,20,798.7408598000002,None,799.7234337999998,None,799.7234337999998,None,799.7234337999998,None,799.7234337999998,None,799.7234337999998,None,799.7234337999998,None,-0.029296875,0.0361328125,1,0,0,first_left,0.9991547500003435,None,,,,MM_1001,2023-10-23_11h18.56.554,exp,2021.1.4,60.02927027225553,
,,,,,,,,0,0,0,0,,,,,802.8195771999999,None,805.0454911000002,None,,images/OBJ_68.png,images/OBJ_171.png,images/OBJ_72.png,806.6476087000001,808.1542785000001,808.6374630999999,810.1370406000001,810.6374041999998,None,806.6548693499997,None,808.63785435,None,810.6369234499998,None,812.1369638000001,None,same,MRL,813.7298243999999,815.2359259999998,815.7192567000002,817.2183383000001,817.718167,None,813.7364631499997,None,815.7187842499998,None,817.7181672500001,None,819.2177025999999,None,0,['leftCL'],820.2174359,None,820.2174359,None,820.2174359,None,820.2174359,None,820.2174359,None,-0.220703125,-0.35546875,1,0,0,2.599273599999833,leftCL,0.01630925000017669,None,822.8167390499998,None,1,,,,,,,,,,,,,,,,,,,,,,,,,,,,,,,,,,,,,,,20,images/OBJ_168.png,RML,MM_1001,2023-10-23_11h18.56.554,exp,2021.1.4,60.02927027225553,
,,,,,,,,1,0,1,0,,,,,,,823.4867005000001,None,,images/OBJ_120.png,images/OBJ_137.png,images/OBJ_104.png,825.0689988999998,826.5827349000001,827.0658438,828.5655046000002,829.0653241999998,None,825.0666145499997,None,827.0654656500001,None,829.06538185,None,830.5648316000002,None,same,MRL,832.1333670999998,833.6468832999999,834.1304417000001,835.6301156,836.1299694999998,None,832.1305348499998,None,834.13057045,None,836.1294933499998,None,837.6295070000001,None,0,['leftCL'],838.6291836999999,None,838.6291836999999,None,838.6291836999999,None,838.6291836999999,None,838.6291836999999,None,-0.220703125,-0.3583984375,1,0,0,2.5155085999999756,leftCL,0.01637834999974075,None,841.1447025500001,None,2,,,,,,,,,,,,,,,,,,,,,,,,,,,,,,,,,,,,,,,,,LMR,MM_1001,2023-10-23_11h18.56.554,exp,2021.1.4,60.02927027225553,
,,,,,,,,2,0,2,0,,,,,,,841.8133545999999,None,,images/OBJ_170.png,images/OBJ_149.png,images/OBJ_139.png,843.4042842999997,844.9102499999999,845.3939445000001,846.8930348999997,847.3933516000002,None,843.4107336,None,845.39345985,None,847.3932088500001,None,848.8929136000002,None,same,MRL,850.4681047999998,851.9753685999999,852.4585367,853.9576274000001,854.4580059,None,850.4757226999998,None,852.4584808499999,None,854.45798535,None,855.9570567000001,None,0,['leftCL'],856.9567570999998,None,856.9567570999998,None,856.9567570999998,None,856.9567570999998,None,856.9567570999998,None,-0.220703125,-0.359375,1,0,0,1.3824940000004062,leftCL,0.01636964999988777,None,858.3397047499998,None,3,,,,,,,,,,,,,,,,,,,,,,,,,,,,,,,,,,,,,,,,,LMR,MM_1001,2023-10-23_11h18.56.554,exp,2021.1.4,60.02927027225553,
,,,,,,,,3,0,3,0,,,,,,,859.0188979999998,None,,images/OBJ_13.png,images/OBJ_157.png,images/OBJ_44.png,860.5971657,862.1052482,862.5889505999999,864.0880511999999,864.5883942999999,None,860.6062681999999,None,862.5889509499998,None,864.5883710500002,None,866.087908,None,same,MRL,867.6603498999998,869.1703806,869.6535973999999,871.1531040999998,871.6528635999998,None,867.6707282999998,None,869.65306775,None,871.6529888499999,None,873.1520578999998,None,0,['leftCL'],874.1522301,None,874.1522301,None,874.1522301,None,874.1522301,None,874.1522301,None,-0.1474609375,-0.3134765625,1,0,0,0.9991286000004038,leftCL,0.01636224999992919,None,875.1514610499999,None,4,,,,,,,,,,,,,,,,,,,,,,,,,,,,,,,,,,,,,,,,,MRL,MM_1001,2023-10-23_11h18.56.554,exp,2021.1.4,60.02927027225553,
,,,,,,,,4,0,4,0,,,,,,,875.8252813999998,None,,images/OBJ_59.png,images/OBJ_115.png,images/OBJ_36.png,877.4033844999999,878.9174972000001,879.4002384999999,880.9002936000002,881.3996616,None,877.4012349499997,None,879.40072655,None,881.4001618500001,None,882.8992162999998,None,same,MRL,884.4676998,885.9816123999999,886.4652360999999,887.9644085999998,888.4647423000001,None,884.46583945,None,886.46532265,None,888.4642688499998,None,889.9638581999998,None,0,['leftCL'],890.9635628000001,None,890.9635628000001,None,890.9635628000001,None,890.9635628000001,None,890.9635628000001,None,-0.1474609375,-0.3134765625,1,0,0,1.9328249000000142,leftCL,0.01637275000075533,None,892.89634535,None,5,,,,,,,,,,,,,,,,,,,,,,,,,,,,,,,,,,,,,,,,,RML,MM_1001,2023-10-23_11h18.56.554,exp,2021.1.4,60.02927027225553,
,,,,,,,,5,0,5,0,,,,,,,893.573672,None,,images/OBJ_48.png,images/OBJ_32.png,images/OBJ_78.png,895.1557766000001,896.6618665000001,897.1450530000002,898.6449518,899.1448869000001,None,895.1628552,None,897.1450652499998,None,899.1448177500001,None,900.6445346999999,None,same,MRL,902.2377299999998,903.7435068999998,904.2263423999998,905.7259057000001,906.2262371000002,None,902.2439870999999,None,904.22685895,None,906.2261565499998,None,907.7257928999998,None,0,['leftCL'],908.7250196,None,908.7250196,None,908.7250196,None,908.7250196,None,908.7250196,None,-0.1513671875,-0.3818359375,1,0,0,3.982259200000044,leftCL,0.016371350000099483,None,912.70765575,None,6,,,,,,,,,,,,,,,,,,,,,,,,,,,,,,,,,,,,,,,,,LRM,MM_1001,2023-10-23_11h18.56.554,exp,2021.1.4,60.02927027225553,
,,,,,,,,6,0,6,0,,,,,,,913.3777829999999,None,,images/OBJ_204.png,images/OBJ_164.png,images/OBJ_195.png,914.9615398000001,916.4731739999997,916.9559454,918.4560575,918.9558462999998,None,914.9732452000001,None,916.95647255,None,918.9553752500001,None,920.4553916999998,None,diff,RML,922.0282299,923.5377463,924.0205961000001,925.5206266,926.0204985,None,922.0382982999997,None,924.02057625,None,926.0203469500002,None,927.5200396999999,None,1,['rightCL'],928.5196443,None,928.5196443,None,928.5196443,None,928.5196443,None,928.5196443,None,0.150390625,-0.310546875,1,0,0,1.7156866000000264,rightCL,0.01638135000030161,None,930.2354624499999,None,7,,,,,,,,,,,,,,,,,,,,,,,,,,,,,,,,,,,,,,,,,MLR,MM_1001,2023-10-23_11h18.56.554,exp,2021.1.4,60.02927027225553,
,,,,,,,,7,0,7,0,,,,,,,930.9087154999997,None,,images/OBJ_168.png,images/OBJ_88.png,images/OBJ_35.png,932.4918330999999,934.0010191000001,934.4847237999998,935.9837428999999,936.4836040999999,None,932.501982,None,934.48418025,None,936.4835599500002,None,937.9831464999997,None,same,RML,939.5553627999998,941.0661070000001,941.5488122000002,943.0487232,943.5487152999999,None,939.5659593999997,None,941.5488222499998,None,943.5486837499998,None,945.0482837,None,0,['leftCL'],946.0479673999998,None,946.0479673999998,None,946.0479673999998,None,946.0479673999998,None,946.0479673999998,None,-0.1767578125,-0.3466796875,1,0,0,2.2160807999998724,leftCL,0.016376450000279874,None,948.2635503500001,None,8,,,,,,,,,,,,,,,,,,,,,,,,,,,,,,,,,,,,,,,,,LMR,MM_1001,2023-10-23_11h18.56.554,exp,2021.1.4,60.02927027225553,
,,,,,,,,8,0,8,0,,,,,,,948.9398013999999,None,,images/OBJ_22.png,images/OBJ_113.png,images/OBJ_14.png,950.5222229999999,952.0290601000002,952.5122531000002,954.0122258000001,954.5116423,None,950.5300639,None,952.5127817500002,None,954.51210085,None,956.0112902000001,None,same,RML,957.5852912,959.0936505999998,959.5774210999998,961.0764156999999,961.5763007,None,957.5945687000001,None,959.57737855,None,961.5763177499998,None,963.0758394999998,None,0,['leftCL'],964.0755303999999,None,964.0755303999999,None,964.0755303999999,None,964.0755303999999,None,964.0755303999999,None,-0.12890625,-0.326171875,1,0,0,2.7659998999997697,leftCL,0.016367350000109582,None,966.8415133499998,None,9,,,,,,,,,,,,,,,,,,,,,,,,,,,,,,,,,,,,,,,,,LMR,MM_1001,2023-10-23_11h18.56.554,exp,2021.1.4,60.02927027225553,
,,,,,,,,9,0,9,0,,,,,,,967.5089905,None,,images/OBJ_81.png,images/OBJ_5.png,images/OBJ_112.png,969.1008799000001,970.6069959000001,971.0901706,972.5897448999999,973.0901386999999,None,969.1075288,None,971.0907109499999,None,973.0901291499999,None,974.5891683,None,diff,RML,976.1650553,977.6716284999998,978.1547826000001,979.6543621000001,980.1542023000002,None,976.1725369999997,None,978.1548005499999,None,980.1542207500001,None,981.6537696,None,0,['leftCL'],982.6534849,None,982.6534849,None,982.6534849,None,982.6534849,None,982.6534849,None,-0.1298828125,-0.3271484375,1,0,0,1.8157248999996227,leftCL,0.016381849999561382,None,984.4696651499999,None,10,,,,,,,,,,,,,,,,,,,,,,,,,,,,,,,,,,,,,,,,,LMR,MM_1001,2023-10-23_11h18.56.554,exp,2021.1.4,60.02927027225553,
,,,,,,,,10,0,10,0,,,,,,,985.1474128,None,,images/OBJ_166.png,images/OBJ_105.png,images/OBJ_114.png,986.7219082000001,988.2352679999999,988.7183845,990.2179489999999,990.7178063000001,None,986.7194327499999,None,988.7189074500002,None,990.71780855,None,992.2173597999999,None,same,RML,993.7885670000001,995.2998603000001,995.7835024000001,997.2830774999998,997.7824019,None,993.7840864499997,None,995.7835280499999,None,997.7824314499999,None,999.2825459000001,None,0,['leftCL'],1000.2817384,None,1000.2817384,None,1000.2817384,None,1000.2817384,None,1000.2817384,None,-0.12890625,-0.3271484375,1,0,0,1.3825770999997076,leftCL,0.016377149999698304,None,1001.6646818499999,None,11,,,,,,,,,,,,,,,,,,,,,,,,,,,,,,,,,,,,,,,,,MRL,MM_1001,2023-10-23_11h18.56.554,exp,2021.1.4,60.02927027225553,
,,,,,,,,11,0,11,0,,,,,,,1002.3355906000002,None,,images/OBJ_28.png,images/OBJ_196.png,images/OBJ_119.png,1003.9165573,1005.4305736000001,1005.9139068999998,1007.4134628000002,1007.9128445000001,None,1003.9140345499998,None,1005.9138859499999,None,1007.9132960500001,None,1009.4123758999999,None,same,RML,1010.9840926000002,1012.4948144999998,1012.9780169000001,1014.478059,1014.9779147999998,None,1010.9789870499997,None,1012.9779898500001,None,1014.9777156499999,None,1016.4773644000002,None,0,['leftCL'],1017.4766853000001,None,1017.4766853000001,None,1017.4766853000001,None,1017.4766853000001,None,1017.4766853000001,None,-0.12890625,-0.3271484375,1,0,0,2.3831688999998732,leftCL,0.016378249999888794,None,1019.8598556500001,None,12,,,,,,,,,,,,,,,,,,,,,,,,,,,,,,,,,,,,,,,,,LMR,MM_1001,2023-10-23_11h18.56.554,exp,2021.1.4,60.02927027225553,
,,,,,,,,12,0,12,0,,,,,,,1020.5270817999999,None,,images/OBJ_140.png,images/OBJ_150.png,images/OBJ_69.png,1022.1200422000002,1023.6248808,1024.1080803,1025.6082114,1026.108006,None,1022.1259162999997,None,1024.10810245,None,1026.1079941500002,None,1027.6070614,None,same,RML,1029.1822324,1030.690023,1031.1732014,1032.6727876999998,1033.1725977,None,1029.1897705,None,1031.17274585,None,1033.17212745,None,1034.6717116,None,0,['leftCL'],1035.6714134,None,1035.6714134,None,1035.6714134,None,1035.6714134,None,1035.6714134,None,-0.12890625,-0.3271484375,1,0,0,1.5829632999998466,leftCL,0.016382350000185397,None,1037.2543038499998,None,13,,,,,,,,,,,,,,,,,,,,,,,,,,,,,,,,,,,,,,,,,LMR,MM_1001,2023-10-23_11h18.56.554,exp,2021.1.4,60.02927027225553,
,,,,,,,,13,0,13,0,,,,,,,1037.9268354,None,,images/OBJ_163.png,images/OBJ_85.png,images/OBJ_158.png,1039.5081341,1041.0198552000002,1041.5034351,1043.0026321,1043.5028349,None,1039.5036368499998,None,1041.5034324499998,None,1043.5028126500001,None,1045.002539,None,diff,RLM,1046.5705024999997,1048.0845404000002,1048.5681184,1050.0672178,1050.5670814,None,1046.5686418499997,None,1048.56815495,None,1050.56714645,None,1052.0666526,None,1,['rightCL'],1053.0663454,None,1053.0663454,None,1053.0663454,None,1053.0663454,None,1053.0663454,None,0.1171875,-0.2998046875,1,0,0,2.366093799999817,rightCL,0.016378750000058062,None,1055.4323704499998,None,14,,,,,,,,,,,,,,,,,,,,,,,,,,,,,,,,,,,,,,,,,RML,MM_1001,2023-10-23_11h18.56.554,exp,2021.1.4,60.02927027225553,
,,,,,,,,14,0,14,0,,,,,,,1056.1020036,None,,images/OBJ_136.png,images/OBJ_54.png,images/OBJ_41.png,1057.6898743000002,1059.1978749,1059.6811512,1061.1811502,1061.6809804999998,None,1057.6984105999998,None,1059.68111985,None,1061.6810096499999,None,1063.1805531,None,same,RLM,1064.7558749,1066.2624525,1066.746184,1068.2452761,1068.7454954999998,None,1064.7633721,None,1066.7461789499998,None,1068.7455489499998,None,1070.2446756999998,None,0,['leftCL'],1071.2443991999999,None,1071.2443991999999,None,1071.2443991999999,None,1071.2443991999999,None,1071.2443991999999,None,-0.427734375,-0.2939453125,1,0,0,2.1494300999997904,leftCL,0.016372149999824614,None,1073.92697035,None,15,,,,,,,,,,,,,,,,,,,,,,,,,,,,,,,,,,,,,,,,,RML,MM_1001,2023-10-23_11h18.56.554,exp,2021.1.4,60.02927027225553,
,,,,,,,,15,0,15,0,,,,,,,1074.6099629999999,None,,images/OBJ_37.png,images/OBJ_66.png,images/OBJ_86.png,1076.1760800000002,1077.6758449999998,1078.1757286000002,1079.6757828,1080.1756133,None,1076.1763264499998,None,1078.17570875,None,1080.17560685,None,1081.6751767,None,same,RLM,1083.2417372999998,1084.7404192,1085.2403338,1086.7403771999998,1087.2400944,None,1083.2413234499998,None,1085.24079535,None,1087.24022805,None,1088.7393014999998,None,0,['leftCL'],1089.7390129,None,1089.7390129,None,1089.7390129,None,1089.7390129,None,1089.7390129,None,-0.2783203125,-0.271484375,1,0,0,2.182679999999891,leftCL,0.01636994999989838,None,1091.92175835,None,16,,,,,,,,,,,,,,,,,,,,,,,,,,,,,,,,,,,,,,,,,LMR,MM_1001,2023-10-23_11h18.56.554,exp,2021.1.4,60.02927027225553,
,,,,,,,,16,0,16,0,,,,,,,1092.5986511,None,,images/OBJ_38.png,images/OBJ_203.png,images/OBJ_56.png,1094.1756383000002,1095.687778,1096.1709715000002,1097.6700058000001,1098.1698975,None,1094.1882742999999,None,1096.1710024499998,None,1098.17039695,None,1099.6694045,None,diff,RLM,1101.2418082999998,1102.7523891,1103.2355767,1104.7351374999998,1105.2345123,None,1101.2522435999997,None,1103.2350604499998,None,1105.23446415,None,1106.7345368000001,None,1,['rightCL'],1107.7338258,None,1107.7338258,None,1107.7338258,None,1107.7338258,None,1107.7338258,None,0.2236328125,-0.30078125,1,0,0,3.848964600000272,rightCL,0.01637285000015254,None,1111.58269295,None,17,,,,,,,,,,,,,,,,,,,,,,,,,,,,,,,,,,,,,,,,,MLR,MM_1001,2023-10-23_11h18.56.554,exp,2021.1.4,60.02927027225553,
,,,,,,,,17,0,17,0,,,,,,,1112.2494084,None,,images/OBJ_126.png,images/OBJ_75.png,images/OBJ_135.png,1113.8260891999998,1115.3319403,1115.8151441,1117.3147921,1117.8146652,None,1113.8320683,None,1115.8152376500002,None,1117.81466555,None,1119.3137468999998,None,same,RLM,1120.8896315000002,1122.3966504999999,1122.8797015,1124.3789330999998,1124.8788359999999,None,1120.8970456999998,None,1122.8798586500002,None,1124.87927515,None,1126.3783374,None,0,['leftCL'],1127.3780554,None,1127.3780554,None,1127.3780554,None,1127.3780554,None,1127.3780554,None,-0.1640625,-0.26953125,1,0,0,2.449230400000033,leftCL,0.016378249999888794,None,1129.8278683499998,None,18,,,,,,,,,,,,,,,,,,,,,,,,,,,,,,,,,,,,,,,,,RML,MM_1001,2023-10-23_11h18.56.554,exp,2021.1.4,60.02927027225553,
,,,,,,,,18,0,18,0,,,,,,,1130.493848,None,,images/OBJ_84.png,images/OBJ_57.png,images/OBJ_19.png,1132.0732401999999,1133.5762372999998,1134.0594113000002,1135.5589836,1136.0594031,None,1132.0767737999997,None,1134.05983095,None,1136.0592463500002,None,1137.5587891,None,same,RLM,1139.1364760000001,1140.6413637,1141.1240309,1142.6235903000002,1143.1234364000002,None,1139.1417019999997,None,1141.1240371499998,None,1143.12341895,None,1144.6229964,None,0,['leftCL'],1145.6227070999998,None,1145.6227070999998,None,1145.6227070999998,None,1145.6227070999998,None,1145.6227070999998,None,-0.1650390625,-0.26953125,1,0,0,1.6496108999999706,leftCL,0.016372850000607286,None,1147.2723001499999,None,19,,,,,,,,,,,,,,,,,,,,,,,,,,,,,,,,,,,,,,,,,LMR,MM_1001,2023-10-23_11h18.56.554,exp,2021.1.4,60.02927027225553,
,,,,,,,,19,0,19,0,,,,,,,1147.9449682999998,None,,images/OBJ_109.png,images/OBJ_92.png,images/OBJ_173.png,1149.5337934999998,1151.0381652,1151.5210418000001,1153.0210800999998,1153.5208035,None,1149.5383325,None,1151.5215199499999,None,1153.52096515,None,1155.0200043999998,None,same,RLM,1156.5984407,1158.1028046000001,1158.5861209,1160.0857070000002,1160.5855935999998,None,1156.6028676999997,None,1158.5860071500001,None,1160.5854201500001,None,1162.0851748,None,0,['leftCL'],1163.0843347,None,1163.0843347,None,1163.0843347,None,1163.0843347,None,1163.0843347,None,-0.1650390625,-0.26953125,1,0,0,1.8157083999999486,leftCL,0.016375350000089384,None,1164.9004928499999,None,20,,,,,,,,,,,,,,,,,,,,,,,,,,,,,,,,,,,,,,,,,RLM,MM_1001,2023-10-23_11h18.56.554,exp,2021.1.4,60.02927027225553,
,,,,,,,,20,0,20,0,,,,,,,1165.5736433000002,None,,images/OBJ_9.png,images/OBJ_64.png,images/OBJ_33.png,1167.1471375,1168.6498391999999,1169.1497355000001,1170.6492956000002,1171.1491375,None,1167.14987365,None,1169.1497409499998,None,1171.14914305,None,1172.6485621000002,None,same,RLM,1174.2123917,1175.7143636,1176.2138433999999,1177.713882,1178.2137538000002,None,1174.21484205,None,1176.2143327499998,None,1178.2137728500002,None,1179.7128248,None,0,['leftCL'],1180.7125247999998,None,1180.7125247999998,None,1180.7125247999998,None,1180.7125247999998,None,1180.7125247999998,None,-0.1650390625,-0.26953125,1,0,0,1.449632599999859,leftCL,0.01638055000012173,None,1182.16213285,None,21,,,,,,,,,,,,,,,,,,,,,,,,,,,,,,,,,,,,,,,,,MLR,MM_1001,2023-10-23_11h18.56.554,exp,2021.1.4,60.02927027225553,
,,,,,,,,21,0,21,0,,,,,,,1182.8317516000002,None,,images/OBJ_209.png,images/OBJ_79.png,images/OBJ_138.png,1184.4100075000001,1185.9113911999998,1186.4113652,1187.9109118000001,1188.4107755999999,None,1184.4114871499999,None,1186.41087255,None,1188.41078015,None,1189.9101593999999,None,same,RLM,1191.4737160999998,1192.976119,1193.4759635,1194.9755433,1195.474917,None,1191.47604515,None,1193.4758439500001,None,1195.47539435,None,1196.9744735999998,None,0,['leftCL'],1197.9741792999998,None,1197.9741792999998,None,1197.9741792999998,None,1197.9741792999998,None,1197.9741792999998,None,-0.166015625,-0.26953125,1,0,0,1.5325075000000652,leftCL,0.01637345000017376,None,1199.50713945,None,22,,,,,,,,,,,,,,,,,,,,,,,,,,,,,,,,,,,,,,,,,MLR,MM_1001,2023-10-23_11h18.56.554,exp,2021.1.4,60.02927027225553,
,,,,,,,,22,0,22,0,,,,,,,1200.1782497,None,,images/OBJ_58.png,images/OBJ_18.png,images/OBJ_26.png,1201.7536559999999,1203.2564475,1203.7396469,1205.2392445,1205.7557347000002,None,1201.75693905,None,1203.73951175,None,1205.75528825,None,1207.2552986,None,diff,MLR,1208.8169951,1210.3211150000002,1210.8042692999998,1212.3033237999998,1212.8198684,None,1208.8214210499998,None,1210.80425375,None,1212.82035575,None,1214.3199172,None,0,['leftCL'],1215.319161,None,1215.319161,None,1215.319161,None,1215.319161,None,1215.319161,None,-0.166015625,-0.26953125,1,0,0,1.2496805000000677,leftCL,0.016375050000078772,None,1216.56878615,None,23,,,,,,,,,,,,,,,,,,,,,,,,,,,,,,,,,,,,,,,,,LMR,MM_1001,2023-10-23_11h18.56.554,exp,2021.1.4,60.02927027225553,
,,,,,,,,23,0,23,0,,,,,,,1217.2518768,None,,images/OBJ_134.png,images/OBJ_80.png,images/OBJ_71.png,1218.8136524000001,1220.3181415999998,1220.8013863,1222.3009210999999,1222.8007739,None,1218.81866535,None,1220.8012449500002,None,1222.8006778499998,None,1224.300233,None,same,MLR,1225.8604598000002,1227.3661013,1227.849303,1229.3489263000001,1229.8482362,None,1225.8660040499997,None,1227.8487867499998,None,1229.84823245,None,1231.3482767,None,0,['leftCL'],1232.3479825,None,1232.3479825,None,1232.3479825,None,1232.3479825,None,1232.3479825,None,-0.166015625,-0.26953125,1,0,0,1.7828841000000466,leftCL,0.01637025000036374,None,1234.13035025,None,24,,,,,,,,,,,,,,,,,,,,,,,,,,,,,,,,,,,,,,,,,RML,MM_1001,2023-10-23_11h18.56.554,exp,2021.1.4,60.02927027225553,
,,,,,,,,24,0,24,0,,,,,,,1234.8021426999999,None,,images/OBJ_197.png,images/OBJ_47.png,images/OBJ_183.png,1236.3799224999998,1237.8797123999998,1238.3795583,1239.8790430999998,1240.3790294,None,1236.3797355499999,None,1238.3795680500002,None,1240.37888255,None,1241.8783351000002,None,same,MLR,1243.4450086000002,1244.9609801000001,1245.4437196999997,1246.9432591999998,1247.4431596999998,None,1243.4447104499998,None,1245.44407455,None,1247.44311785,None,1248.9426841999998,None,0,['leftCL'],1249.9423907999999,None,1249.9423907999999,None,1249.9423907999999,None,1249.9423907999999,None,1249.9423907999999,None,-0.166015625,-0.26953125,1,0,0,2.082396499999959,leftCL,0.016372550000141928,None,1252.02513545,None,25,,,,,,,,,,,,,,,,,,,,,,,,,,,,,,,,,,,,,,,,,RML,MM_1001,2023-10-23_11h18.56.554,exp,2021.1.4,60.02927027225553,
,,,,,,,,,,,,,,,,,,,,,,,,,,,,,,,,,,,,,,,,,,,,,,,,,,,,,,,,,,,,,,,,,,,,,,,,,,,,,25,1252.5338121999998,None,None,None,space,1019.6145050999999,None,None,,,,,,,,,,,,,,,,,,,,,,,,,,,,,,,,,,MM_1001,2023-10-23_11h18.56.554,exp,2021.1.4,60.02927027225553,
,,,,0,0,0,0,,,,,,,,,,,,,,,,,,,,,,,,,,,,,,,,,,,,,,,,,,,,,,,,,,,,,,,,,,,,,,,,,,,,1263.80551475,None,,,,,,,,,,old,1258.4846014999998,None,1258.4931821999935,None,1259.9900259,None,1,1260.9896743,None,1261.9558994999998,None,1261.9558994999998,None,1261.9558994999998,None,1261.9558994999998,None,1261.9558994999998,None,1261.9558994999998,None,-0.0263671875,-0.134765625,1,0,0,second_middle,1.0152609500000835,None,,,,MM_1001,2023-10-23_11h18.56.554,exp,2021.1.4,60.02927027225553,
