EncodingTrials.thisRepN,EncodingTrials.thisTrialN,EncodingTrials.thisN,EncodingTrials.thisIndex,RetrievalTrials.thisRepN,RetrievalTrials.thisTrialN,RetrievalTrials.thisN,RetrievalTrials.thisIndex,EncodingBlock2.thisRepN,EncodingBlock2.thisTrialN,EncodingBlock2.thisN,EncodingBlock2.thisIndex,RetrievalBlock2.thisRepN,RetrievalBlock2.thisTrialN,RetrievalBlock2.thisN,RetrievalBlock2.thisIndex,Instructions.started,Instructions.stopped,fixation.started,fixation.stopped,trialOrder,triplet1,triplet2,triplet3,Triplet1.started,Triplet1.stopped,Triplet2.started,Triplet2.stopped,Triplet3.started,Triplet3.stopped,sound_pop.started,sound_pop.stopped,sound_pop2.started,sound_pop2.stopped,sound_pop3.started,sound_pop3.stopped,Mask.started,Mask.stopped,encodingType,nextTrial,img1.started,img1.stopped,img2.started,img2.stopped,img3.started,img3.stopped,sound_pop4.started,sound_pop4.stopped,sound_pop5.started,sound_pop5.stopped,sound_pop6.started,sound_pop6.stopped,text_2.started,text_2.stopped,methodCheck,Method Clicked,text.started,text.stopped,sameText.started,sameText.stopped,diffText.started,diffText.stopped,leftCL.started,leftCL.stopped,rightCL.started,rightCL.stopped,MethodMouse.x,MethodMouse.y,MethodMouse.leftButton,MethodMouse.midButton,MethodMouse.rightButton,MethodMouse.time,MethodMouse.clicked_name,MethodMouse.started,MethodMouse.stopped,clickedSound.started,clickedSound.stopped,encodingTrials,BlockBreak.started,BlockBreak.stopped,text_4.started,text_4.stopped,start2.keys,start2.rt,start2.started,start2.stopped,retType,retIMG.started,retIMG.stopped,sound_pop7.started,sound_pop7.stopped,question_text.started,question_text.stopped,retTrials,decisionQ_2.started,decisionQ_2.stopped,first_left.started,first_left.stopped,second_middle.started,second_middle.stopped,third_right.started,third_right.stopped,First.started,First.stopped,Second.started,Second.stopped,Third.started,Third.stopped,Order_Position_Response.x,Order_Position_Response.y,Order_Position_Response.leftButton,Order_Position_Response.midButton,Order_Position_Response.rightButton,Order_Position_Response.clicked_name,Order_Position_Response.started,Order_Position_Response.stopped,retrievalTrials,retIMG,Trial_Order,participant,date,expName,psychopyVersion,frameRate,
0,0,0,0,,,,,,,,,,,,,138.36459700000069,None,140.26852540000073,None,RML,images/OBJ_85.png,images/OBJ_200.png,images/OBJ_36.png,141.9119369,143.4123098,143.91217200000028,145.41209570000046,145.91157850000036,None,141.91292552000004,None,143.91217418000042,None,145.91159947999995,None,147.4116285,None,diff,LMR,149.04266650000045,150.54355380000015,151.0434008000002,152.54347310000048,153.04322760000014,None,149.04416272000026,None,151.0434144800006,None,153.04285948000006,None,154.54239620000044,None,0,['leftCL'],155.54213590000018,None,155.54213590000018,None,155.54213590000018,None,155.54213590000018,None,155.54213590000018,None,-0.15625,-0.326171875,1,0,0,3.3621833999995943,leftCL,0.013150880000466714,None,158.90782558,None,,,,,,,,,,,,,,,,,,,,,,,,,,,,,,,,,,,,,,,,,,,MM_1002,2023-10-23_12h05.47.840,exp,2021.1.4,59.96343429758088,
1,0,1,0,,,,,,,,,,,,,,,159.58101480000005,None,RML,images/OBJ_31.png,images/OBJ_56.png,images/OBJ_199.png,161.1295278000007,162.64000870000018,163.12321100000008,164.62277059999997,165.12313600000016,None,161.1410450200001,None,163.12324218000003,None,165.12265398000045,None,166.62268360000053,None,same,LMR,168.17397660000006,169.6884738000008,170.17117320000034,171.67071540000052,172.17061570000078,None,168.17219374000024,None,170.17177998000034,None,172.1710948800005,None,173.6706432000001,None,0,['leftCL'],174.67035710000073,None,174.67035710000073,None,174.67035710000073,None,174.67035710000073,None,174.67035710000073,None,-0.193359375,-0.2568359375,1,0,0,0.3333020999998553,leftCL,0.01638327999989997,None,175.00313428000072,None,,,,,,,,,,,,,,,,,,,,,,,,,,,,,,,,,,,,,,,,,,,MM_1002,2023-10-23_12h05.47.840,exp,2021.1.4,59.96343429758088,
2,0,2,0,,,,,,,,,,,,,,,175.68091340000046,None,LMR,images/OBJ_15.png,images/OBJ_92.png,images/OBJ_115.png,177.23288460000003,178.73583560000043,179.23521270000037,180.73480330000075,181.23511540000072,None,177.23585421999996,None,179.23521368000047,None,181.2346361800005,None,182.7342131000005,None,same,LMR,184.27926800000023,185.7833180000007,186.26651120000042,187.76606750000064,188.28259160000016,None,184.28368102000059,None,186.26654408000059,None,188.28314098000055,None,189.78214320000006,None,0,['leftCL'],190.7818438000004,None,190.7818438000004,None,190.7818438000004,None,190.7818438000004,None,190.7818438000004,None,-0.1953125,-0.2841796875,1,0,0,1.3335544000001391,leftCL,0.016379879999476543,None,192.11481528000013,None,,,,,,,,,,,,,,,,,,,,,,,,,,,,,,,,,,,,,,,,,,,MM_1002,2023-10-23_12h05.47.840,exp,2021.1.4,59.96343429758088,
3,0,3,0,,,,,,,,,,,,,,,192.7905853000002,None,MLR,images/OBJ_9.png,images/OBJ_3.png,images/OBJ_55.png,194.34105590000036,195.84752879999996,196.33076710000023,197.82981689999997,198.32966250000027,None,194.34808242000054,None,196.3302343800001,None,198.3296676800005,None,199.82924820000062,None,diff,LMR,201.3696656000002,202.87833840000076,203.36153580000064,204.86104109999997,205.36094520000006,None,201.37924062000002,None,203.36202538000043,None,205.3609931800006,None,206.86092220000046,None,0,['leftCL'],207.86022550000052,None,207.86022550000052,None,207.86022550000052,None,207.86022550000052,None,207.86022550000052,None,-0.1953125,-0.2841796875,1,0,0,1.1163833999999042,leftCL,0.0163879799993083,None,208.97658558000012,None,,,,,,,,,,,,,,,,,,,,,,,,,,,,,,,,,,,,,,,,,,,MM_1002,2023-10-23_12h05.47.840,exp,2021.1.4,59.96343429758088,
4,0,4,0,,,,,,,,,,,,,,,209.6566042000004,None,MRL,images/OBJ_102.png,images/OBJ_97.png,images/OBJ_104.png,211.2017138000001,212.70929049999995,213.19206329999997,214.69157630000063,215.19145130000015,None,211.20980332,None,213.19200368000065,None,215.19142688000056,None,216.6910486000006,None,same,LMR,218.23081870000078,219.74042740000004,220.22329320000063,221.7230154000008,222.2227040000007,None,218.2405494200002,None,220.22370788000035,None,222.22271718000002,None,223.72227120000025,None,0,['leftCL'],224.72200040000007,None,224.72200040000007,None,224.72200040000007,None,224.72200040000007,None,224.72200040000007,None,-0.19140625,-0.2822265625,1,0,0,0.26659099999960745,leftCL,0.01636997999958112,None,224.9886004800005,None,,,,,,,,,,,,,,,,,,,,,,,,,,,,,,,,,,,,,,,,,,,MM_1002,2023-10-23_12h05.47.840,exp,2021.1.4,59.96343429758088,
5,0,5,0,,,,,,,,,,,,,,,225.67216050000025,None,LMR,images/OBJ_20.png,images/OBJ_66.png,images/OBJ_10.png,227.21035980000033,228.7208031,229.2040020000004,230.70356170000014,231.20342580000033,None,227.22181352000007,None,229.20401377999997,None,231.20345417999988,None,232.70298470000034,None,same,LMR,234.23845040000015,235.75258510000003,236.2353032000001,237.73483080000005,238.23518409999997,None,234.23583134000046,None,236.23534498000072,None,238.23473848000003,None,239.73469210000076,None,0,['leftCL'],240.73447300000043,None,240.73447300000043,None,240.73447300000043,None,240.73447300000043,None,240.73447300000043,None,-0.19140625,-0.2822265625,1,0,0,1.266325799999322,leftCL,0.016380380000555306,None,242.00031288000037,None,,,,,,,,,,,,,,,,,,,,,,,,,,,,,,,,,,,,,,,,,,,MM_1002,2023-10-23_12h05.47.840,exp,2021.1.4,59.96343429758088,
6,0,6,0,,,,,,,,,,,,,,,242.6707483,None,RML,images/OBJ_51.png,images/OBJ_171.png,images/OBJ_190.png,244.2738745000006,245.78249760000017,246.26567680000062,247.76525200000015,248.26511870000013,None,244.28309876000048,None,246.26572838000038,None,248.26562228000012,None,249.7651805000005,None,same,LMR,251.37235180000062,252.88093000000026,253.36363700000038,254.8631777999999,255.36353000000054,None,251.3814491600001,None,253.36368428000014,None,255.3630942800005,None,256.8626408,None,0,['leftCL'],257.86234950000016,None,257.86234950000016,None,257.86234950000016,None,257.86234950000016,None,257.86234950000016,None,-0.19140625,-0.2822265625,1,0,0,1.7160573999999542,leftCL,0.01636638000036328,None,259.5785293800004,None,,,,,,,,,,,,,,,,,,,,,,,,,,,,,,,,,,,,,,,,,,,MM_1002,2023-10-23_12h05.47.840,exp,2021.1.4,59.96343429758088,
7,0,7,0,,,,,,,,,,,,,,,260.2556751000002,None,LMR,images/OBJ_37.png,images/OBJ_21.png,images/OBJ_95.png,261.8396154000002,263.34408370000074,263.8277622000005,265.3268109999999,265.82718920000025,None,261.8446329799999,None,263.82773348,None,265.82666548000043,None,267.3262259000003,None,same,LMR,268.9020956000004,270.40916560000005,270.89235760000065,272.3914461000004,272.89168860000063,None,268.90910738,None,270.8918812800007,None,272.89183618000015,None,274.3908571000002,None,0,['leftCL'],275.39105480000035,None,275.39105480000035,None,275.39105480000035,None,275.39105480000035,None,275.39105480000035,None,-0.19140625,-0.2822265625,1,0,0,2.5155413000002227,leftCL,0.016384679999646323,None,277.90657478,None,,,,,,,,,,,,,,,,,,,,,,,,,,,,,,,,,,,,,,,,,,,MM_1002,2023-10-23_12h05.47.840,exp,2021.1.4,59.96343429758088,
8,0,8,0,,,,,,,,,,,,,,,278.56821390000005,None,RML,images/OBJ_83.png,images/OBJ_74.png,images/OBJ_155.png,280.1501027000004,281.65589140000066,282.1385654000005,283.6381332000001,284.13797740000064,None,280.15599188000033,None,282.13856608000015,None,284.13799917999995,None,285.6375691000003,None,same,LMR,287.2151222000002,288.7200156000008,289.2032237000003,290.7027590000007,291.20262120000007,None,287.2209617799999,None,289.20373178,None,291.2026403800005,None,292.70221970000057,None,0,['leftCL'],293.7023573000006,None,293.7023573000006,None,293.7023573000006,None,293.7023573000006,None,293.7023573000006,None,-0.19140625,-0.2822265625,1,0,0,1.2830180999999357,leftCL,0.016384080000534595,None,294.9848959800006,None,,,,,,,,,,,,,,,,,,,,,,,,,,,,,,,,,,,,,,,,,,,MM_1002,2023-10-23_12h05.47.840,exp,2021.1.4,59.96343429758088,
9,0,9,0,,,,,,,,,,,,,,,295.66137550000076,None,MLR,images/OBJ_164.png,images/OBJ_151.png,images/OBJ_82.png,297.24246720000065,298.75092680000034,299.23363810000046,300.7331761000005,301.2335159000004,None,297.2514905799999,None,299.2341232800004,None,301.2335516799999,None,302.7325862000007,None,same,LMR,304.30334720000064,305.81504829999994,306.2986969000003,307.7977890000002,308.2981720000007,None,304.2987747000002,None,306.2982600800001,None,308.29815478000046,None,309.7972372000004,None,0,['leftCL'],310.79695750000064,None,310.79695750000064,None,310.79695750000064,None,310.79695750000064,None,310.79695750000064,None,-0.189453125,-0.28125,1,0,0,1.0002487000001565,leftCL,0.016385180000725086,None,311.79717348000077,None,,,,,,,,,,,,,,,,,,,,,,,,,,,,,,,,,,,,,,,,,,,MM_1002,2023-10-23_12h05.47.840,exp,2021.1.4,59.96343429758088,
10,0,10,0,,,,,,,,,,,,,,,312.47456050000073,None,MRL,images/OBJ_196.png,images/OBJ_183.png,images/OBJ_54.png,314.05288330000076,315.5622207000006,316.0453823000007,317.54492670000036,318.0453098000007,None,314.06318878,None,316.0453853800004,None,318.0448127800005,None,319.5443554000003,None,same,LMR,321.11940980000054,322.6268048000002,323.1100649,324.6095843000003,325.10943750000024,None,321.12776657999984,None,323.11001908000026,None,325.1094441800001,None,326.60900459999993,None,0,['leftCL'],327.6091993,None,327.6091993,None,327.6091993,None,327.6091993,None,327.6091993,None,-0.1884765625,-0.2802734375,1,0,0,1.399687900000572,leftCL,0.016376480000872107,None,329.00834538000026,None,,,,,,,,,,,,,,,,,,,,,,,,,,,,,,,,,,,,,,,,,,,MM_1002,2023-10-23_12h05.47.840,exp,2021.1.4,59.96343429758088,
11,0,11,0,,,,,,,,,,,,,,,329.68120160000035,None,RML,images/OBJ_119.png,images/OBJ_46.png,images/OBJ_123.png,331.27029519999996,332.77387070000077,333.25753930000064,334.75667710000016,335.2564749000003,None,331.2748439799998,None,333.25707637999994,None,335.2564940800007,None,336.75653409999995,None,same,LMR,338.3314854,339.8384693000007,340.32217149999997,341.82170570000017,342.32109860000037,None,338.33901288000015,None,340.32217008,None,342.32148128000017,None,343.8211332000001,None,0,['leftCL'],344.82035630000064,None,344.82035630000064,None,344.82035630000064,None,344.82035630000064,None,344.82035630000064,None,-0.1875,-0.2802734375,1,0,0,1.3334690000001501,leftCL,0.016386279999096587,None,346.15381408000076,None,,,,,,,,,,,,,,,,,,,,,,,,,,,,,,,,,,,,,,,,,,,MM_1002,2023-10-23_12h05.47.840,exp,2021.1.4,59.96343429758088,
12,0,12,0,,,,,,,,,,,,,,,346.8226643000007,None,RML,images/OBJ_84.png,images/OBJ_126.png,images/OBJ_210.png,348.41593439999997,349.9188436000004,350.4020442000001,351.9021096000006,352.4019713000007,None,348.41943807999996,None,350.4025961800003,None,352.40199708000046,None,353.90106540000033,None,same,LMR,355.47717009999997,356.9834955000006,357.4666504000006,358.9661833,359.4665758000001,None,355.4840050800003,None,357.46667707999995,None,359.46612228000004,None,360.9656276000005,None,0,['leftCL'],361.9653519000003,None,361.9653519000003,None,361.9653519000003,None,361.9653519000003,None,361.9653519000003,None,-0.1884765625,-0.28125,1,0,0,1.3501866000005975,leftCL,0.01638827999977366,None,363.3154790800004,None,,,,,,,,,,,,,,,,,,,,,,,,,,,,,,,,,,,,,,,,,,,MM_1002,2023-10-23_12h05.47.840,exp,2021.1.4,59.96343429758088,
13,0,13,0,,,,,,,,,,,,,,,363.9862000000003,None,RML,images/OBJ_79.png,images/OBJ_186.png,images/OBJ_187.png,365.5653024000003,367.0810280000005,367.5637501000001,369.06369429999995,369.56363390000024,None,365.56440880000036,None,367.56426848,None,369.56350367999994,None,371.06273880000026,None,diff,LMR,372.6309274000005,374.1455507999999,374.6287639000002,376.1284015000001,376.6277693000002,None,372.629461,None,374.62838498000065,None,376.6277880800003,None,378.1273086000001,None,0,['leftCL'],379.12703280000005,None,379.12703280000005,None,379.12703280000005,None,379.12703280000005,None,379.12703280000005,None,-0.189453125,-0.28125,1,0,0,1.1997082999996564,leftCL,0.016336280000359693,None,380.3267321799999,None,,,,,,,,,,,,,,,,,,,,,,,,,,,,,,,,,,,,,,,,,,,MM_1002,2023-10-23_12h05.47.840,exp,2021.1.4,59.96343429758088,
14,0,14,0,,,,,,,,,,,,,,,381.0027518000006,None,LMR,images/OBJ_63.png,images/OBJ_59.png,images/OBJ_136.png,382.5786975000001,384.09275830000024,384.5754519000002,386.07496850000007,386.5752745,None,382.57621100000006,None,384.5754463799999,None,386.57485858000064,None,388.0744218,None,same,LMR,389.64099050000004,391.14018860000033,391.6400499000001,393.14013820000037,393.6394786999999,None,389.6406257000003,None,391.6405876800004,None,393.6394842800005,None,395.13904619999994,None,0,['leftCL'],396.1392392000007,None,396.1392392000007,None,396.1392392000007,None,396.1392392000007,None,396.1392392000007,None,-0.1708984375,-0.28125,1,0,0,1.865777199999684,leftCL,0.016390879999562458,None,398.00492688000077,None,,,,,,,,,,,,,,,,,,,,,,,,,,,,,,,,,,,,,,,,,,,MM_1002,2023-10-23_12h05.47.840,exp,2021.1.4,59.96343429758088,
15,0,15,0,,,,,,,,,,,,,,,398.67756290000034,None,LMR,images/OBJ_143.png,images/OBJ_128.png,images/OBJ_103.png,400.2578374000004,401.7709687000006,402.25365970000075,403.75356940000074,404.25351560000036,None,400.2543664,None,402.2536727800002,None,404.25308318,None,405.75311430000056,None,same,LMR,407.3207562000007,408.8350724000002,409.3187301000007,410.8178373999999,411.3176570000005,None,407.3193507000001,None,409.31879808000076,None,411.31770147999987,None,412.81730659999994,None,0,['leftCL'],413.8169787000006,None,413.8169787000006,None,413.8169787000006,None,413.8169787000006,None,413.8169787000006,None,-0.1708984375,-0.28125,1,0,0,1.449174800000037,leftCL,0.016379880000386038,None,415.26658118000023,None,,,,,,,,,,,,,,,,,,,,,,,,,,,,,,,,,,,,,,,,,,,MM_1002,2023-10-23_12h05.47.840,exp,2021.1.4,59.96343429758088,
16,0,16,0,,,,,,,,,,,,,,,415.93845000000056,None,RLM,images/OBJ_198.png,images/OBJ_42.png,images/OBJ_33.png,417.5297788000007,419.0320920000004,419.51530730000013,421.0148727000005,421.51516100000026,None,417.53319337999983,None,419.51528068000016,None,421.51470118000043,None,423.01426750000064,None,same,LMR,424.5887150000008,426.09671980000076,426.5803773000007,428.07947220000005,428.57930790000046,None,424.5972656800004,None,426.58034328000076,None,428.5793837800006,None,430.0788843,None,0,['leftCL'],431.07907440000054,None,431.07907440000054,None,431.07907440000054,None,431.07907440000054,None,431.07907440000054,None,-0.1708984375,-0.28125,1,0,0,1.7329250000002503,leftCL,0.016386479998800496,None,432.81195307999997,None,,,,,,,,,,,,,,,,,,,,,,,,,,,,,,,,,,,,,,,,,,,MM_1002,2023-10-23_12h05.47.840,exp,2021.1.4,59.96343429758088,
17,0,17,0,,,,,,,,,,,,,,,433.4901421000004,None,MLR,images/OBJ_86.png,images/OBJ_156.png,images/OBJ_40.png,435.06709020000017,436.5769829000001,437.06069130000014,438.5597244999999,439.06011820000003,None,435.07757268000023,None,437.0601792800003,None,439.05963308000037,None,440.5592166000006,None,same,LMR,442.1286090000003,443.64160830000037,444.12479500000063,445.62431580000066,446.1242226000004,None,442.12586000000056,None,444.12479808000035,None,446.12473658000044,None,447.6242712000003,None,0,['leftCL'],448.62346180000077,None,448.62346180000077,None,448.62346180000077,None,448.62346180000077,None,448.62346180000077,None,-0.1708984375,-0.28125,1,0,0,1.6663131000004796,leftCL,0.016392679999626125,None,450.28970168000023,None,,,,,,,,,,,,,,,,,,,,,,,,,,,,,,,,,,,,,,,,,,,MM_1002,2023-10-23_12h05.47.840,exp,2021.1.4,59.96343429758088,
18,0,18,0,,,,,,,,,,,,,,,450.95887070000026,None,LMR,images/OBJ_70.png,images/OBJ_100.png,images/OBJ_101.png,452.5545073000003,454.0556785000008,454.55507840000064,456.05468740000015,456.55452680000053,None,452.55590477999976,None,454.55559777999997,None,456.55452218000073,None,458.05456330000015,None,same,LMR,459.64626300000054,461.1531784000008,461.6363639000001,463.1359087999999,463.6357631000001,None,459.65367028000037,None,461.6364166799999,None,463.6358115799999,None,465.1353525000004,None,0,['leftCL'],466.13502470000003,None,466.13502470000003,None,466.13502470000003,None,466.13502470000003,None,466.13502470000003,None,-0.1474609375,-0.330078125,1,0,0,3.199157699999887,leftCL,0.01638057999934972,None,469.3342106800005,None,,,,,,,,,,,,,,,,,,,,,,,,,,,,,,,,,,,,,,,,,,,MM_1002,2023-10-23_12h05.47.840,exp,2021.1.4,59.96343429758088,
19,0,19,0,,,,,,,,,,,,,,,470.00039319999996,None,LMR,images/OBJ_134.png,images/OBJ_23.png,images/OBJ_69.png,471.5733216000008,473.0835219999999,473.5662333,475.0658234000002,475.56609000000026,None,471.58360968000034,None,473.5666658800005,None,475.5656772800007,None,477.0652005000002,None,same,LMR,478.64102880000064,480.1481211,480.6308267000004,482.1304170000003,482.6302546000006,None,478.64820987999974,None,480.63090348000014,None,482.6307701800001,None,484.1298291000003,None,0,['leftCL'],485.12951820000035,None,485.12951820000035,None,485.12951820000035,None,485.12951820000035,None,485.12951820000035,None,-0.1474609375,-0.330078125,1,0,0,1.7495356999997966,leftCL,0.01639147999958368,None,486.87905488000024,None,,,,,,,,,,,,,,,,,,,,,,,,,,,,,,,,,,,,,,,,,,,MM_1002,2023-10-23_12h05.47.840,exp,2021.1.4,59.96343429758088,
20,0,20,0,,,,,,,,,,,,,,,487.5551292,None,RML,images/OBJ_29.png,images/OBJ_154.png,images/OBJ_141.png,489.1403798000001,490.6445904000002,491.1278001999999,492.6278377000008,493.1272402000004,None,489.1457219800004,None,491.12782858000037,None,493.1272301800004,None,494.6272592000005,None,diff,MLR,496.2021007000003,497.7097040000008,498.1928824000006,499.6919605000003,500.19229220000034,None,496.2097103799997,None,498.19295548000036,None,500.1918413799999,None,501.6913819000001,None,1,['rightCL'],502.6911177000002,None,502.6911177000002,None,502.6911177000002,None,502.6911177000002,None,502.6911177000002,None,0.0498046875,-0.2890625,1,0,0,2.265539699999863,rightCL,0.016322679999575485,None,505.2404114800006,None,,,,,,,,,,,,,,,,,,,,,,,,,,,,,,,,,,,,,,,,,,,MM_1002,2023-10-23_12h05.47.840,exp,2021.1.4,59.96343429758088,
21,0,21,0,,,,,,,,,,,,,,,505.9225815,None,LMR,images/OBJ_167.png,images/OBJ_94.png,images/OBJ_67.png,507.50246400000015,509.00593860000026,509.48958290000064,510.988687,511.4885509000005,None,507.50691048000044,None,509.48914728000045,None,511.4885466800001,None,512.9885779000006,None,diff,RML,514.5622596000003,516.0709486000005,516.5542143000002,518.0537731000004,518.5536314000001,None,514.5710244800002,None,516.5541427800003,None,518.5535579800003,None,520.0526775000008,None,1,['rightCL'],521.0524089,None,521.0524089,None,521.0524089,None,521.0524089,None,521.0524089,None,0.1591796875,-0.23828125,1,0,0,3.6818138999997245,rightCL,0.016378979999899457,None,524.7346865800005,None,,,,,,,,,,,,,,,,,,,,,,,,,,,,,,,,,,,,,,,,,,,MM_1002,2023-10-23_12h05.47.840,exp,2021.1.4,59.96343429758088,
22,0,22,0,,,,,,,,,,,,,,,525.4089882000007,None,RML,images/OBJ_205.png,images/OBJ_72.png,images/OBJ_170.png,526.9895500000002,528.5002525,528.9834610000007,530.4829896000001,530.9828407000005,None,526.9845303000006,None,528.9834147800007,None,530.9828540800004,None,532.4829,None,same,RML,534.0706973000006,535.5815634,536.0647325,537.5642876000002,538.0646402000002,None,534.0824421799998,None,536.0647393800004,None,538.0646878800003,None,539.5636995000004,None,1,['rightCL'],540.5633952000007,None,540.5633952000007,None,540.5633952000007,None,540.5633952000007,None,540.5633952000007,None,0.1591796875,-0.2373046875,1,0,0,2.165924900000391,rightCL,0.0163866799994139,None,542.7294778800001,None,,,,,,,,,,,,,,,,,,,,,,,,,,,,,,,,,,,,,,,,,,,MM_1002,2023-10-23_12h05.47.840,exp,2021.1.4,59.96343429758088,
23,0,23,0,,,,,,,,,,,,,,,543.4127776000005,None,RML,images/OBJ_133.png,images/OBJ_19.png,images/OBJ_4.png,544.9925869000008,546.4953973000001,546.9786970000005,548.4782792000005,548.9781003000007,None,544.9955869800006,None,546.9787347800007,None,548.9776535800006,None,550.4775630000004,None,same,RML,552.0545810000003,553.5601249000001,554.0432943000005,555.5423697000006,556.0422229000005,None,552.0601219800001,None,554.0428401800004,None,556.0422902800005,None,557.5422732000006,None,1,['rightCL'],558.5414961000006,None,558.5414961000006,None,558.5414961000006,None,558.5414961000006,None,558.5414961000006,None,0.158203125,-0.2373046875,1,0,0,1.7323661999998876,rightCL,0.016389680000429507,None,560.2743859800007,None,,,,,,,,,,,,,,,,,,,,,,,,,,,,,,,,,,,,,,,,,,,MM_1002,2023-10-23_12h05.47.840,exp,2021.1.4,59.96343429758088,
24,0,24,0,,,,,,,,,,,,,,,560.9509112000005,None,MRL,images/OBJ_80.png,images/OBJ_75.png,images/OBJ_204.png,562.5274156000005,564.0399221000007,564.5235947000001,566.0231526000007,566.5229322000005,None,562.5241808000005,None,564.5231796800003,None,566.5224904800002,None,568.0225641000006,None,same,RML,569.5958420000006,571.1045286000008,571.5876956000002,573.0873196000002,573.5875400000004,None,569.60547408,None,571.5877166800005,None,573.5871620800003,None,575.0872062000008,None,1,['rightCL'],576.0868739000007,None,576.0868739000007,None,576.0868739000007,None,576.0868739000007,None,576.0868739000007,None,0.158203125,-0.2373046875,1,0,0,2.8658894999998665,rightCL,0.016381280000132392,None,578.95277338,None,,,,,,,,,,,,,,,,,,,,,,,,,,,,,,,,,,,,,,,,,,,MM_1002,2023-10-23_12h05.47.840,exp,2021.1.4,59.96343429758088,
,,,,,,,,,,,,,,,,,,,,,,,,,,,,,,,,,,,,,,,,,,,,,,,,,,,,,,,,,,,,,,,,,,,,,,,,,,,,,25,579.4553875000001,None,None,None,space,443.4589683000004,None,None,,,,,,,,,,,,,,,,,,,,,,,,,,,,,,,,,,MM_1002,2023-10-23_12h05.47.840,exp,2021.1.4,59.96343429758088,
,,,,0,0,0,0,,,,,,,,,,,,,,,,,,,,,,,,,,,,,,,,,,,,,,,,,,,,,,,,,,,,,,,,,,,,,,,,,,,,587.4669482800005,None,,,,,,,,,,old,581.8229994000003,None,581.8350645199998,None,583.3343541000004,None,1,584.3340303000004,None,585.3003573000005,None,585.3003573000005,None,585.3003573000005,None,585.3003573000005,None,585.3003573000005,None,585.3003573000005,None,0.0078125,-0.1142578125,1,0,0,second_middle,0.9990195800000947,None,,,,MM_1002,2023-10-23_12h05.47.840,exp,2021.1.4,59.96343429758088,
,,,,1,0,1,0,,,,,,,,,,,,,,,,,,,,,,,,,,,,,,,,,,,,,,,,,,,,,,,,,,,,,,,,,,,,,,,,,,,,593.58134328,None,,,,,,,,,,old,588.1518176,None,588.1498164599998,None,589.6657839,None,2,590.6655011000003,None,591.6323849,None,591.6323849,None,591.6323849,None,591.6323849,None,591.6323849,None,591.6323849,None,-0.0712890625,-0.26953125,1,0,0,third_right,0.9997379799997361,None,,,,MM_1002,2023-10-23_12h05.47.840,exp,2021.1.4,59.96343429758088,
,,,,2,0,2,0,,,,,,,,,,,,,,,,,,,,,,,,,,,,,,,,,,,,,,,,,,,,,,,,,,,,,,,,,,,,,,,,,,,,599.4801127800006,None,,,,,,,,,,old,594.2813056000005,None,594.2814450399997,None,595.7806887000006,None,3,596.7803825000001,None,597.7467409000001,None,597.7467409000001,None,597.7467409000001,None,597.7467409000001,None,597.7467409000001,None,597.7467409000001,None,0.0322265625,0.0751953125,1,0,0,first_left,0.9992011800004548,None,,,,MM_1002,2023-10-23_12h05.47.840,exp,2021.1.4,59.96343429758088,
,,,,3,0,3,0,,,,,,,,,,,,,,,,,,,,,,,,,,,,,,,,,,,,,,,,,,,,,,,,,,,,,,,,,,,,,,,,,,,,605.2446185800004,None,,,,,,,,,,old,600.1749279000005,None,600.1796942400001,None,601.678962,None,4,602.6791536000001,None,603.6617262,None,603.6617262,None,603.6617262,None,603.6617262,None,603.6617262,None,603.6617262,None,0.0341796875,0.076171875,1,0,0,first_left,1.015456180000001,None,,,,MM_1002,2023-10-23_12h05.47.840,exp,2021.1.4,59.96343429758088,
,,,,4,0,4,0,,,,,,,,,,,,,,,,,,,,,,,,,,,,,,,,,,,,,,,,,,,,,,,,,,,,,,,,,,,,,,,,,,,,612.7424484799999,None,,,,,,,,,,old,605.9865432000006,None,605.9947163799998,None,607.4939304,None,5,608.4936341000002,None,609.4600058000005,None,609.4600058000005,None,609.4600058000005,None,609.4600058000005,None,609.4600058000005,None,609.4600058000005,None,-0.00390625,-0.154296875,1,0,0,second_middle,0.9991749799992249,None,,,,MM_1002,2023-10-23_12h05.47.840,exp,2021.1.4,59.96343429758088,
,,,,5,0,5,0,,,,,,,,,,,,,,,,,,,,,,,,,,,,,,,,,,,,,,,,,,,,,,,,,,,,,,,,,,,,,,,,,,,,617.6743438799999,None,,,,,,,,,,old,613.4710228000004,None,613.4758999000001,None,614.9750861000002,None,6,615.9747892000005,None,616.9412038,None,616.9412038,None,616.9412038,None,616.9412038,None,616.9412038,None,616.9412038,None,0.0068359375,-0.2509765625,1,0,0,third_right,0.9994529799996599,None,,,,MM_1002,2023-10-23_12h05.47.840,exp,2021.1.4,59.96343429758088,
,,,,6,0,6,0,,,,,,,,,,,,,,,,,,,,,,,,,,,,,,,,,,,,,,,,,,,,,,,,,,,,,,,,,,,,,,,,,,,,622.80618998,None,,,,,,,,,,old,618.3952044000007,None,618.4077830000001,None,619.9074792000001,None,7,620.9066988000004,None,621.8897476000002,None,621.8897476000002,None,621.8897476000002,None,621.8897476000002,None,621.8897476000002,None,621.8897476000002,None,0.0537109375,0.0908203125,1,0,0,first_left,0.9991949799996291,None,,,,MM_1002,2023-10-23_12h05.47.840,exp,2021.1.4,59.96343429758088,
,,,,7,0,7,0,,,,,,,,,,,,,,,,,,,,,,,,,,,,,,,,,,,,,,,,,,,,,,,,,,,,,,,,,,,,,,,,,,,,628.3878566799999,None,,,,,,,,,,old,623.5301702000006,None,623.5401080999995,None,625.0393141000004,None,8,626.0390719000006,None,627.0049309000005,None,627.0049309000005,None,627.0049309000005,None,627.0049309000005,None,627.0049309000005,None,627.0049309000005,None,-0.0361328125,-0.0966796875,1,0,0,second_middle,0.9992171799995049,None,,,,MM_1002,2023-10-23_12h05.47.840,exp,2021.1.4,59.96343429758088,
,,,,8,0,8,0,,,,,,,,,,,,,,,,,,,,,,,,,,,,,,,,,,,,,,,,,,,,,,,,,,,,,,,,,,,,,,,,,,,,633.1864515800003,None,,,,,,,,,,old,629.1089673000006,None,629.1213136000001,None,630.6210528000001,None,9,631.6202806000001,None,632.5871111000006,None,632.5871111000006,None,632.5871111000006,None,632.5871111000006,None,632.5871111000006,None,632.5871111000006,None,-0.0234375,-0.2421875,1,0,0,third_right,0.9996271800000613,None,,,,MM_1002,2023-10-23_12h05.47.840,exp,2021.1.4,59.96343429758088,
,,,,9,0,9,0,,,,,,,,,,,,,,,,,,,,,,,,,,,,,,,,,,,,,,,,,,,,,,,,,,,,,,,,,,,,,,,,,,,,638.6520322800002,None,,,,,,,,,,old,633.9084069,None,633.9199745999999,None,635.4190940000008,None,10,636.4188991000001,None,637.3857154000007,None,637.3857154000007,None,637.3857154000007,None,637.3857154000007,None,637.3857154000007,None,637.3857154000007,None,-0.0224609375,0.1181640625,1,0,0,first_left,0.9996523800009527,None,,,,MM_1002,2023-10-23_12h05.47.840,exp,2021.1.4,59.96343429758088,
,,,,10,0,10,0,,,,,,,,,,,,,,,,,,,,,,,,,,,,,,,,,,,,,,,,,,,,,,,,,,,,,,,,,,,,,,,,,,,,644.03335328,None,,,,,,,,,,old,639.3726072,None,639.3849995999994,None,640.8842308000003,None,11,641.88393,None,642.8508086000002,None,642.8508086000002,None,642.8508086000002,None,642.8508086000002,None,642.8508086000002,None,642.8508086000002,None,0.0068359375,-0.02734375,1,0,0,second_middle,0.9992472800013275,None,,,,MM_1002,2023-10-23_12h05.47.840,exp,2021.1.4,59.96343429758088,
,,,,11,0,11,0,,,,,,,,,,,,,,,,,,,,,,,,,,,,,,,,,,,,,,,,,,,,,,,,,,,,,,,,,,,,,,,,,,,,650.4814625800004,None,,,,,,,,,,old,644.7663046000007,None,644.7667614999996,None,646.2659917999999,None,12,647.2657127000002,None,648.2320669999999,None,648.2320669999999,None,648.2320669999999,None,648.2320669999999,None,648.2320669999999,None,648.2320669999999,None,0.0166015625,0.0458984375,1,0,0,first_left,0.9992011799995453,None,,,,MM_1002,2023-10-23_12h05.47.840,exp,2021.1.4,59.96343429758088,
,,,,12,0,12,0,,,,,,,,,,,,,,,,,,,,,,,,,,,,,,,,,,,,,,,,,,,,,,,,,,,,,,,,,,,,,,,,,,,,655.1134572800006,None,,,,,,,,,,old,651.2019981000003,None,651.2148636999996,None,652.7140734000004,None,13,653.7138136000003,None,654.6802281,None,654.6802281,None,654.6802281,None,654.6802281,None,654.6802281,None,654.6802281,None,-0.0048828125,-0.1435546875,1,0,0,second_middle,0.9992179799983205,None,,,,MM_1002,2023-10-23_12h05.47.840,exp,2021.1.4,59.96343429758088,
,,,,13,0,13,0,,,,,,,,,,,,,,,,,,,,,,,,,,,,,,,,,,,,,,,,,,,,,,,,,,,,,,,,,,,,,,,,,,,,665.4775555800002,None,,,,,,,,,,old,655.8273365000005,None,655.83024682,None,657.3299338000006,None,14,658.3297028000006,None,659.3123321000003,None,659.3123321000003,None,659.3123321000003,None,659.3123321000003,None,659.3123321000003,None,659.3123321000003,None,-0.02734375,0.0791015625,1,0,0,first_left,1.0155259800003478,None,,,,MM_1002,2023-10-23_12h05.47.840,exp,2021.1.4,59.96343429758088,
,,,,14,0,14,0,,,,,,,,,,,,,,,,,,,,,,,,,,,,,,,,,,,,,,,,,,,,,,,,,,,,,,,,,,,,,,,,,,,,670.6922558800002,None,,,,,,,,,,old,666.2007497000004,None,666.2105516999995,None,667.7097484000005,None,15,668.7094512000003,None,669.6758481000006,None,669.6758481000006,None,669.6758481000006,None,669.6758481000006,None,669.6758481000006,None,669.6758481000006,None,-0.017578125,-0.302734375,1,0,0,third_right,0.999202780001724,None,,,,MM_1002,2023-10-23_12h05.47.840,exp,2021.1.4,59.96343429758088,
,,,,15,0,15,0,,,,,,,,,,,,,,,,,,,,,,,,,,,,,,,,,,,,,,,,,,,,,,,,,,,,,,,,,,,,,,,,,,,,675.7741792800002,None,,,,,,,,,,old,671.4192132000007,None,671.4257132999996,None,672.9249178,None,16,673.9250811000002,None,674.8910089999999,None,674.8910089999999,None,674.8910089999999,None,674.8910089999999,None,674.8910089999999,None,674.8910089999999,None,-0.05078125,-0.0849609375,1,0,0,second_middle,0.999200579999524,None,,,,MM_1002,2023-10-23_12h05.47.840,exp,2021.1.4,59.96343429758088,
,,,,16,0,16,0,,,,,,,,,,,,,,,,,,,,,,,,,,,,,,,,,,,,,,,,,,,,,,,,,,,,,,,,,,,,,,,,,,,,680.9059158800005,None,,,,,,,,,,old,676.5028076000008,None,676.5075614000002,None,678.0067469000005,None,17,679.0064703000007,None,679.9728539000007,None,679.9728539000007,None,679.9728539000007,None,679.9728539000007,None,679.9728539000007,None,679.9728539000007,None,0.041015625,0.03125,1,0,0,first_left,0.9991978799989738,None,,,,MM_1002,2023-10-23_12h05.47.840,exp,2021.1.4,59.96343429758088,
,,,,17,0,17,0,,,,,,,,,,,,,,,,,,,,,,,,,,,,,,,,,,,,,,,,,,,,,,,,,,,,,,,,,,,,,,,,,,,,685.8050298800003,None,,,,,,,,,,old,681.6288256000007,None,681.6393800999999,None,683.1390804000002,None,18,684.1382688000003,None,685.1047127000002,None,685.1047127000002,None,685.1047127000002,None,685.1047127000002,None,685.1047127000002,None,685.1047127000002,None,-0.0009765625,-0.3173828125,1,0,0,third_right,0.9992257799995059,None,,,,MM_1002,2023-10-23_12h05.47.840,exp,2021.1.4,59.96343429758088,
,,,,18,0,18,0,,,,,,,,,,,,,,,,,,,,,,,,,,,,,,,,,,,,,,,,,,,,,,,,,,,,,,,,,,,,,,,,,,,,690.7364477800006,None,,,,,,,,,,old,686.5414049999999,None,686.5379663999997,None,688.0543146,None,19,689.0535221,None,690.0199299000005,None,690.0199299000005,None,690.0199299000005,None,690.0199299000005,None,690.0199299000005,None,690.0199299000005,None,0.0107421875,-0.1171875,1,0,0,second_middle,1.0153277799990974,None,,,,MM_1002,2023-10-23_12h05.47.840,exp,2021.1.4,59.96343429758088,
,,,,19,0,19,0,,,,,,,,,,,,,,,,,,,,,,,,,,,,,,,,,,,,,,,,,,,,,,,,,,,,,,,,,,,,,,,,,,,,695.2850785800006,None,,,,,,,,,,old,691.4570800000001,None,691.4698335999997,None,692.9690955000005,None,20,693.9687973,None,694.9356430000007,None,694.9356430000007,None,694.9356430000007,None,694.9356430000007,None,694.9356430000007,None,694.9356430000007,None,-0.001953125,0.1630859375,1,0,0,first_left,0.9996730799994111,None,,,,MM_1002,2023-10-23_12h05.47.840,exp,2021.1.4,59.96343429758088,
,,,,,,,,0,0,0,0,,,,,695.7986004000004,None,698.6753279000004,None,,images/OBJ_36.png,images/OBJ_200.png,images/OBJ_85.png,700.2582959000001,701.7665156000003,702.2497136000002,703.749272,704.2495962000003,None,700.2670778800002,None,702.2496886800004,None,704.2490811800003,None,705.7486939,None,same,RML,707.3213226000007,708.8315090000006,709.3148105,710.8142448000008,711.3142425000005,None,707.3315387800003,None,709.3143356800006,None,711.3137670800002,None,712.8132875000001,None,0,['leftCL'],713.8134810000001,None,713.8134810000001,None,713.8134810000001,None,713.8134810000001,None,713.8134810000001,None,-0.1005859375,-0.2578125,1,0,0,1.8156103000001167,leftCL,0.016302580000228772,None,715.6291737800007,None,1,,,,,,,,,,,,,,,,,,,,,,,,,,,,,,,,,,,,,,,20,images/OBJ_103.png,LMR,MM_1002,2023-10-23_12h05.47.840,exp,2021.1.4,59.96343429758088,
,,,,,,,,1,0,1,0,,,,,,,716.3056274999999,None,,images/OBJ_31.png,images/OBJ_56.png,images/OBJ_199.png,717.8715726,719.3780483999999,719.8612568000008,721.3608004000007,721.8606368000001,None,717.8785634000001,None,719.8617422800003,None,721.8606644800007,None,723.3602411000002,None,same,RML,724.9195075000007,726.4264126000007,726.9091864000002,728.4087457000005,728.9086050000005,None,724.9264721000004,None,726.9092417800007,None,728.9086248799999,None,730.4081815,None,0,['leftCL'],731.4078770000006,None,731.4078770000006,None,731.4078770000006,None,731.4078770000006,None,731.4078770000006,None,-0.1259765625,-0.283203125,1,0,0,0.7831689999993614,leftCL,0.016382879999582656,None,732.1910345800002,None,2,,,,,,,,,,,,,,,,,,,,,,,,,,,,,,,,,,,,,,,,,RLM,MM_1002,2023-10-23_12h05.47.840,exp,2021.1.4,59.96343429758088,
,,,,,,,,2,0,2,0,,,,,,,732.8699514,None,,images/OBJ_15.png,images/OBJ_92.png,images/OBJ_115.png,734.4451536000006,735.9570728000008,736.4402371000006,737.9392909000007,738.4392278000005,None,734.4571199800002,None,736.4397763800002,None,738.4391946800001,None,739.9387175000002,None,same,RML,741.5098539,743.0211777000004,743.5048302000005,745.0039205000003,745.5042723000006,None,741.5049846000006,None,743.5043720799999,None,745.5038014800007,None,747.0033962000007,None,1,['rightCL'],748.0030489999999,None,748.0030489999999,None,748.0030489999999,None,748.0030489999999,None,748.0030489999999,None,0.16796875,-0.240234375,1,0,0,1.349792900000466,rightCL,0.016384779999498278,None,749.35274858,None,3,,,,,,,,,,,,,,,,,,,,,,,,,,,,,,,,,,,,,,,,,LRM,MM_1002,2023-10-23_12h05.47.840,exp,2021.1.4,59.96343429758088,
,,,,,,,,3,0,3,0,,,,,,,750.0317326000004,None,,images/OBJ_55.png,images/OBJ_3.png,images/OBJ_9.png,751.6012598000007,753.1015613,753.6014286,755.1009878000004,755.6008599000006,None,751.6021224000001,None,753.6014685800005,None,755.6012247800004,None,757.1004072000005,None,diff,RML,758.6674405000003,760.1661931000008,760.6664920000003,762.1656227000003,762.6654642000003,None,758.6671135000001,None,760.6660147800008,None,762.6659604800002,None,764.1650226000002,None,1,['rightCL'],765.1647696,None,765.1647696,None,765.1647696,None,765.1647696,None,765.1647696,None,0.27734375,-0.29296875,1,0,0,0.983541100000366,rightCL,0.01639067999985855,None,766.1482748800004,None,4,,,,,,,,,,,,,,,,,,,,,,,,,,,,,,,,,,,,,,,,,LMR,MM_1002,2023-10-23_12h05.47.840,exp,2021.1.4,59.96343429758088,
,,,,,,,,4,0,4,0,,,,,,,766.8219730000001,None,,images/OBJ_102.png,images/OBJ_97.png,images/OBJ_104.png,768.3961798,769.8971667000005,770.3965447999999,771.8966217000007,772.3959685,None,768.3976459999999,None,770.39657278,None,772.39647208,None,773.8960036000008,None,diff,MRL,775.4605692000005,776.9612928000006,777.4612277000006,778.9607022,779.4605663000002,None,775.4621754000004,None,777.4611843800008,None,779.4605953800005,None,780.9601363000002,None,1,['rightCL'],781.9603474000005,None,781.9603474000005,None,781.9603474000005,None,781.9603474000005,None,781.9603474000005,None,0.2666015625,-0.3291015625,1,0,0,1.4656635999999708,rightCL,0.01638048000040726,None,783.4261232800004,None,5,,,,,,,,,,,,,,,,,,,,,,,,,,,,,,,,,,,,,,,,,RML,MM_1002,2023-10-23_12h05.47.840,exp,2021.1.4,59.96343429758088,
,,,,,,,,5,0,5,0,,,,,,,784.1037337000007,None,,images/OBJ_20.png,images/OBJ_66.png,images/OBJ_10.png,785.6707233000006,787.1750065000006,787.6581926000008,789.1581933000007,789.6579885000001,None,785.6755165999998,None,787.6582152800006,None,789.65761488,None,791.1576555000001,None,same,MRL,792.7190635000006,794.2229458000002,794.7066214000006,796.2061823000004,796.7060159000002,None,792.7234020999999,None,794.7061579800006,None,796.7060014800004,None,798.2051150000007,None,0,['leftCL'],799.2048406000004,None,799.2048406000004,None,799.2048406000004,None,799.2048406000004,None,799.2048406000004,None,-0.2666015625,-0.3447265625,1,0,0,1.2331056000002718,leftCL,0.016370180000194523,None,800.4378856799999,None,6,,,,,,,,,,,,,,,,,,,,,,,,,,,,,,,,,,,,,,,,,LRM,MM_1002,2023-10-23_12h05.47.840,exp,2021.1.4,59.96343429758088,
,,,,,,,,6,0,6,0,,,,,,,801.1148889000006,None,,images/OBJ_51.png,images/OBJ_171.png,images/OBJ_190.png,802.7053681000007,804.2205344000004,804.7037210000008,806.2027607,806.7026374000006,None,802.70441828,None,804.7032172800004,None,806.7031516800002,None,808.2021881000001,None,same,MRL,809.7866271000003,811.3012972000006,811.7845002000004,813.2840492000005,813.7839549,None,809.7855767800002,None,811.7849229799999,None,813.7839183800002,None,815.2834763000001,None,0,['leftCL'],816.2831808000001,None,816.2831808000001,None,816.2831808000001,None,816.2831808000001,None,816.2831808000001,None,-0.2646484375,-0.345703125,1,0,0,1.2168977000001178,leftCL,0.016387879999456345,None,817.5000097800007,None,7,,,,,,,,,,,,,,,,,,,,,,,,,,,,,,,,,,,,,,,,,RML,MM_1002,2023-10-23_12h05.47.840,exp,2021.1.4,59.96343429758088,
,,,,,,,,7,0,7,0,,,,,,,818.1728594000006,None,,images/OBJ_95.png,images/OBJ_21.png,images/OBJ_37.png,819.7560725000003,821.2650618000007,821.7487421000005,823.2478111,823.7476644000008,None,819.7656704800002,None,821.7487413800004,None,823.7481880800001,None,825.2472148000006,None,diff,LRM,826.8211837000008,828.3296567000007,828.8129017000001,830.3123888,830.8128257000008,None,826.8300843799998,None,828.8128691800007,None,830.8122793800007,None,832.3118618000008,None,1,['rightCL'],833.3115655000001,None,833.3115655000001,None,833.3115655000001,None,833.3115655000001,None,833.3115655000001,None,0.2099609375,-0.27734375,1,0,0,1.8662365000000136,rightCL,0.016386079999392678,None,835.1777904800006,None,8,,,,,,,,,,,,,,,,,,,,,,,,,,,,,,,,,,,,,,,,,RLM,MM_1002,2023-10-23_12h05.47.840,exp,2021.1.4,59.96343429758088,
,,,,,,,,8,0,8,0,,,,,,,835.8517839000006,None,,images/OBJ_83.png,images/OBJ_155.png,images/OBJ_74.png,837.4362807000007,838.9432485000007,839.4264384000007,840.9260328,841.4263377000007,None,837.4443177800003,None,839.4265398800003,None,841.42589008,None,842.9254608000001,None,diff,MRL,844.5007175000001,846.0078723000006,846.4914177,847.9906298000005,848.4904722000001,None,844.5087821799998,None,846.49145258,None,848.4905102800008,None,849.9900619,None,1,['rightCL'],850.9897499000008,None,850.9897499000008,None,850.9897499000008,None,850.9897499000008,None,850.9897499000008,None,0.2099609375,-0.28515625,1,0,0,1.482456299999285,rightCL,0.016382480001084332,None,852.4726924800002,None,9,,,,,,,,,,,,,,,,,,,,,,,,,,,,,,,,,,,,,,,,,RML,MM_1002,2023-10-23_12h05.47.840,exp,2021.1.4,59.96343429758088,
,,,,,,,,9,0,9,0,,,,,,,853.1430614000001,None,,images/OBJ_164.png,images/OBJ_151.png,images/OBJ_82.png,854.7249326000001,856.2382296000005,856.721415,858.2214577000004,858.7209514000006,None,854.7220686000005,None,856.7214416800002,None,858.7210053800004,None,860.2204267000006,None,same,MRL,861.7909562000004,863.3028510000004,863.7865251000003,865.2855803000002,865.7854669000008,None,861.7871271999998,None,863.7865160800006,None,865.7854710800007,None,867.2849961000002,None,0,['leftCL'],868.2847383000008,None,868.2847383000008,None,868.2847383000008,None,868.2847383000008,None,868.2847383000008,None,-0.185546875,-0.2880859375,1,0,0,1.4824217000004865,leftCL,0.016310080000039306,None,869.7676802800001,None,10,,,,,,,,,,,,,,,,,,,,,,,,,,,,,,,,,,,,,,,,,RML,MM_1002,2023-10-23_12h05.47.840,exp,2021.1.4,59.96343429758088,
,,,,,,,,10,0,10,0,,,,,,,870.4422730000006,None,,images/OBJ_196.png,images/OBJ_54.png,images/OBJ_183.png,872.0227021000001,873.5336043000007,874.0164010000008,875.5164569000008,876.0157965000008,None,872.0337477800003,None,874.0168953800007,None,876.01633928,None,877.5153870000004,None,diff,MLR,879.0899863000004,880.5978048000006,881.0809951000001,882.5809864000003,883.0804228000006,None,879.0982456800002,None,881.0810327800004,None,883.0804442800004,None,884.5804715000004,None,1,['rightCL'],885.5802467000003,None,885.5802467000003,None,885.5802467000003,None,885.5802467000003,None,885.5802467000003,None,0.1435546875,-0.28125,1,0,0,1.8990036000004693,rightCL,0.01639138000064122,None,887.4791771800005,None,11,,,,,,,,,,,,,,,,,,,,,,,,,,,,,,,,,,,,,,,,,RML,MM_1002,2023-10-23_12h05.47.840,exp,2021.1.4,59.96343429758088,
,,,,,,,,11,0,11,0,,,,,,,888.1558896000006,None,,images/OBJ_119.png,images/OBJ_46.png,images/OBJ_123.png,889.7383337000001,891.2447337000003,891.7278786000006,893.2274686999999,893.7273407000002,None,889.7452854800003,None,891.72793288,None,893.7277628800007,None,895.226885,None,same,MLR,896.8020638000007,898.3092792000007,898.7924870000006,900.2920819000001,900.7924134000004,None,896.8098039799997,None,898.7925468799999,None,900.7924541800007,None,902.2914777000005,None,0,['leftCL'],903.2912069000004,None,903.2912069000004,None,903.2912069000004,None,903.2912069000004,None,903.2912069000004,None,-0.1259765625,-0.28125,1,0,0,1.9156966000000466,leftCL,0.01637557999947603,None,905.2073635800002,None,12,,,,,,,,,,,,,,,,,,,,,,,,,,,,,,,,,,,,,,,,,RML,MM_1002,2023-10-23_12h05.47.840,exp,2021.1.4,59.96343429758088,
,,,,,,,,12,0,12,0,,,,,,,905.8763313,None,,images/OBJ_84.png,images/OBJ_126.png,images/OBJ_210.png,907.4682723000005,908.9728985000002,909.4561010000007,910.9556457000008,911.4554985000004,None,907.4739572799999,None,909.4560733800004,None,911.4555204800004,None,912.9550846000002,None,same,MLR,914.5307580000008,916.0379962000006,916.5211319,918.0207300000002,918.5205524000003,None,914.5380017799998,None,916.5207429800007,None,918.52014138,None,920.0201697000002,None,0,['leftCL'],921.0193988999999,None,921.0193988999999,None,921.0193988999999,None,921.0193988999999,None,921.0193988999999,None,-0.1640625,-0.2744140625,1,0,0,0.9331866000002265,leftCL,0.016383379999751924,None,921.9529666800004,None,13,,,,,,,,,,,,,,,,,,,,,,,,,,,,,,,,,,,,,,,,,LMR,MM_1002,2023-10-23_12h05.47.840,exp,2021.1.4,59.96343429758088,
,,,,,,,,13,0,13,0,,,,,,,922.6399348000004,None,,images/OBJ_187.png,images/OBJ_79.png,images/OBJ_186.png,924.2220444000004,925.734692,926.2179100000003,927.7174322999999,928.2177646,None,924.2186568000002,None,926.2178754800002,None,928.2177826800003,None,929.7168274000005,None,same,MLR,931.2854090999999,932.7992848000004,933.2829578000001,934.7820620000002,935.2822961000002,None,931.2830440000002,None,933.28251348,None,935.2819043800005,None,936.781457,None,0,['leftCL'],937.7811791000004,None,937.7811791000004,None,937.7811791000004,None,937.7811791000004,None,937.7811791000004,None,-0.2138671875,-0.310546875,1,0,0,0.9335860000001048,leftCL,0.016377479999391653,None,938.7147459800003,None,14,,,,,,,,,,,,,,,,,,,,,,,,,,,,,,,,,,,,,,,,,LMR,MM_1002,2023-10-23_12h05.47.840,exp,2021.1.4,59.96343429758088,
,,,,,,,,14,0,14,0,,,,,,,939.3959520000008,None,,images/OBJ_63.png,images/OBJ_59.png,images/OBJ_136.png,940.9638689000003,942.4631524000006,942.9634753,944.4625313000006,944.9628998000007,None,940.9641799000005,None,942.9634191800001,None,944.96243628,None,946.4619934000002,None,same,MLR,948.0283975000002,949.5281846000007,950.0280870000006,951.5271510000002,952.0275292000006,None,948.0282856999997,None,950.0276284800007,None,952.0270891800005,None,953.5266015000007,None,0,['leftCL'],954.5262969000005,None,954.5262969000005,None,954.5262969000005,None,954.5262969000005,None,954.5262969000005,None,-0.1416015625,-0.30078125,1,0,0,0.7826491000005262,leftCL,0.016381279999222897,None,955.3094452800001,None,15,,,,,,,,,,,,,,,,,,,,,,,,,,,,,,,,,,,,,,,,,LMR,MM_1002,2023-10-23_12h05.47.840,exp,2021.1.4,59.96343429758088,
,,,,,,,,15,0,15,0,,,,,,,955.9895460000007,None,,images/OBJ_143.png,images/OBJ_128.png,images/OBJ_103.png,957.5591293000007,959.0583176,959.5581333,961.0577029000005,961.5575820000004,None,957.5593488,None,959.5585648800002,None,961.55808888,None,963.0576031999999,None,same,MLR,964.6245038000006,966.1400926000006,966.6227509,968.1222974000002,968.6226765000001,None,964.6233776000004,None,966.6227668800007,None,968.6227198800002,None,970.1217429000008,None,0,['leftCL'],971.1214451000005,None,971.1214451000005,None,971.1214451000005,None,971.1214451000005,None,971.1214451000005,None,-0.15234375,-0.2900390625,1,0,0,0.41620680000050925,leftCL,0.016384080000534595,None,971.5381470800007,None,16,,,,,,,,,,,,,,,,,,,,,,,,,,,,,,,,,,,,,,,,,MRL,MM_1002,2023-10-23_12h05.47.840,exp,2021.1.4,59.96343429758088,
,,,,,,,,16,0,16,0,,,,,,,972.2081082000004,None,,images/OBJ_198.png,images/OBJ_42.png,images/OBJ_33.png,973.7973399000002,975.3035531000005,975.7868007000006,977.2868282,977.7862012000005,None,973.8041842800003,None,975.7872800800001,None,977.7867037800002,None,979.2857732000002,None,same,MLR,980.8590764,982.3682029000001,982.8513779000004,984.3509473000004,984.8512784000004,None,980.8691384800004,None,982.8514095800006,None,984.8513031800007,None,986.3504290999999,None,0,['leftCL'],987.3500924,None,987.3500924,None,987.3500924,None,987.3500924,None,987.3500924,None,-0.13671875,-0.244140625,1,0,0,0.36660829999982525,leftCL,0.01638768000066193,None,987.7167057800002,None,17,,,,,,,,,,,,,,,,,,,,,,,,,,,,,,,,,,,,,,,,,LMR,MM_1002,2023-10-23_12h05.47.840,exp,2021.1.4,59.96343429758088,
,,,,,,,,17,0,17,0,,,,,,,988.3996327000004,None,,images/OBJ_86.png,images/OBJ_156.png,images/OBJ_40.png,989.9707163000003,991.4827076000001,991.9653506000004,993.4649791000002,993.9648515000008,None,989.9665710000004,None,991.96541518,None,993.9648433800007,None,995.4643608000006,None,same,MLR,997.0321088999999,998.5468344000001,999.0300258000007,1000.5300496,1001.0293876000005,None,997.0310617999999,None,999.0300145800006,None,1001.0299292800005,None,1002.5295480000004,None,0,['leftCL'],1003.5291683000005,None,1003.5291683000005,None,1003.5291683000005,None,1003.5291683000005,None,1003.5291683000005,None,-0.1103515625,-0.3212890625,1,0,0,0.649365499999476,leftCL,0.01638327999989997,None,1004.1785518800002,None,18,,,,,,,,,,,,,,,,,,,,,,,,,,,,,,,,,,,,,,,,,LMR,MM_1002,2023-10-23_12h05.47.840,exp,2021.1.4,59.96343429758088,
,,,,,,,,18,0,18,0,,,,,,,1004.8521337000002,None,,images/OBJ_70.png,images/OBJ_100.png,images/OBJ_101.png,1006.4376568000007,1007.9444889000006,1008.4273301000003,1009.9268377000008,1010.4267169000004,None,1006.4446642800003,None,1008.4273145800003,None,1010.4271934800004,None,1011.9266848000007,None,same,MLR,1013.5022852000002,1015.0091679000006,1015.4922235000004,1016.9914461000008,1017.4913258000006,None,1013.5091998799999,None,1015.49242018,None,1017.4917284799999,None,1018.9908975000008,None,0,['leftCL'],1019.9906014000007,None,1019.9906014000007,None,1019.9906014000007,None,1019.9906014000007,None,1019.9906014000007,None,-0.21875,-0.2666015625,1,0,0,0.5004049000008308,leftCL,0.016382680001697736,None,1020.4909683800001,None,19,,,,,,,,,,,,,,,,,,,,,,,,,,,,,,,,,,,,,,,,,LRM,MM_1002,2023-10-23_12h05.47.840,exp,2021.1.4,59.96343429758088,
,,,,,,,,19,0,19,0,,,,,,,1021.1629793000002,None,,images/OBJ_134.png,images/OBJ_23.png,images/OBJ_69.png,1022.7469108000005,1024.2564021000007,1024.7396844000004,1026.2388031,1026.7386332000005,None,1022.7566043799998,None,1024.73922568,None,1026.7390656800003,None,1028.2382214,None,same,MLR,1029.8134793,1031.3206360000004,1031.8038057000003,1033.3038782000003,1033.8032494,None,1029.8215292800005,None,1031.8038317800006,None,1033.8032592800005,None,1035.3028565000004,None,0,['leftCL'],1036.3025434,None,1036.3025434,None,1036.3025434,None,1036.3025434,None,1036.3025434,None,-0.1533203125,-0.25390625,1,0,0,0.30048080000051414,leftCL,0.01637317999939114,None,1036.6030082800003,None,20,,,,,,,,,,,,,,,,,,,,,,,,,,,,,,,,,,,,,,,,,RML,MM_1002,2023-10-23_12h05.47.840,exp,2021.1.4,59.96343429758088,
,,,,,,,,20,0,20,0,,,,,,,1037.2805020000005,None,,images/OBJ_154.png,images/OBJ_141.png,images/OBJ_29.png,1038.8601159,1040.3684885000002,1040.8515517000005,1042.3507565,1042.8506061000007,None,1038.8685878799997,None,1040.85169128,None,1042.8506820800008,None,1044.3502613,None,same,MLR,1045.9272212000005,1047.4325979000005,1047.9157908000007,1049.4153793000005,1049.9156954,None,1045.9335703799998,None,1047.9158095800008,None,1049.9152241800007,None,1051.4152893,None,0,['leftCL'],1052.4149862000004,None,1052.4149862000004,None,1052.4149862000004,None,1052.4149862000004,None,1052.4149862000004,None,-0.177734375,-0.3232421875,1,0,0,0.716073999999935,leftCL,0.016387679999752436,None,1053.1309923800004,None,21,,,,,,,,,,,,,,,,,,,,,,,,,,,,,,,,,,,,,,,,,RML,MM_1002,2023-10-23_12h05.47.840,exp,2021.1.4,59.96343429758088,
,,,,,,,,21,0,21,0,,,,,,,1053.7985916000007,None,,images/OBJ_167.png,images/OBJ_94.png,images/OBJ_67.png,1055.3906123000006,1056.8969391,1057.3796917,1058.8792948,1059.3795377000006,None,1055.3975607800003,None,1057.3797379800003,None,1059.3791617800002,None,1060.8787003000007,None,same,MLR,1062.4532435,1063.9611135000005,1064.4443260000007,1065.9438800000007,1066.4437377000004,None,1062.4620684800002,None,1064.4444266800006,None,1066.4438113800002,None,1067.9433135,None,0,['leftCL'],1068.9430382,None,1068.9430382,None,1068.9430382,None,1068.9430382,None,1068.9430382,None,-0.1591796875,-0.3154296875,1,0,0,0.7498234000004231,leftCL,0.01638877999903343,None,1069.6928237800007,None,22,,,,,,,,,,,,,,,,,,,,,,,,,,,,,,,,,,,,,,,,,MLR,MM_1002,2023-10-23_12h05.47.840,exp,2021.1.4,59.96343429758088,
,,,,,,,,22,0,22,0,,,,,,,1070.3717118000004,None,,images/OBJ_205.png,images/OBJ_72.png,images/OBJ_170.png,1071.9483747000004,1073.4583785000004,1073.9587096000005,1075.4578133000005,1075.9581651000008,None,1071.9427692000004,None,1073.9582546800007,None,1075.9576723800005,None,1077.4572097,None,same,MLR,1079.0274591000007,1080.5401434000005,1081.0228337000008,1082.5224227000008,1083.0222642000008,None,1079.0405506799998,None,1081.0232481799999,None,1083.0222772800003,None,1084.5218513,None,0,['leftCL'],1085.5215085,None,1085.5215085,None,1085.5215085,None,1085.5215085,None,1085.5215085,None,-0.1015625,-0.30078125,1,0,0,0.6003890000001775,leftCL,0.01638587999968877,None,1086.1218865800006,None,23,,,,,,,,,,,,,,,,,,,,,,,,,,,,,,,,,,,,,,,,,LMR,MM_1002,2023-10-23_12h05.47.840,exp,2021.1.4,59.96343429758088,
,,,,,,,,23,0,23,0,,,,,,,1086.8036976000003,None,,images/OBJ_133.png,images/OBJ_19.png,images/OBJ_4.png,1088.3830861000006,1089.8873407,1090.3700804,1091.8696740000005,1092.3695446000002,None,1088.3879495800002,None,1090.3706329800002,None,1092.3700213800007,None,1093.8694736000007,None,same,MLR,1095.4468376000004,1096.9520091000004,1097.4347299,1098.9342479000006,1099.4341274000008,None,1095.4520233800004,None,1097.4347216800002,None,1099.4341364800007,None,1100.9337109000007,None,0,['leftCL'],1101.9334286000003,None,1101.9334286000003,None,1101.9334286000003,None,1101.9334286000003,None,1101.9334286000003,None,-0.24609375,-0.294921875,1,0,0,0.8003239999998186,leftCL,0.016386079999392678,None,1102.73371008,None,24,,,,,,,,,,,,,,,,,,,,,,,,,,,,,,,,,,,,,,,,,RML,MM_1002,2023-10-23_12h05.47.840,exp,2021.1.4,59.96343429758088,
,,,,,,,,24,0,24,0,,,,,,,1103.4110104000001,None,,images/OBJ_80.png,images/OBJ_75.png,images/OBJ_204.png,1104.9884260000008,1106.4987331000002,1106.9824179000007,1108.4814806000004,1108.9818501,None,1104.99935688,None,1106.9819406800002,None,1108.98134178,None,1110.4809035000007,None,same,MLR,1112.0533628000003,1113.5633692000001,1114.0298798000003,1115.5294418000003,1116.0464570000004,None,1112.06429638,None,1114.0303898800007,None,1116.0459696800003,None,1117.5455136,None,0,['leftCL'],1118.5452272000002,None,1118.5452272000002,None,1118.5452272000002,None,1118.5452272000002,None,1118.5452272000002,None,-0.1826171875,-0.287109375,1,0,0,0.43326259999957983,leftCL,0.016380979999667034,None,1118.9784972800003,None,25,,,,,,,,,,,,,,,,,,,,,,,,,,,,,,,,,,,,,,,,,LRM,MM_1002,2023-10-23_12h05.47.840,exp,2021.1.4,59.96343429758088,
,,,,,,,,,,,,,,,,,,,,,,,,,,,,,,,,,,,,,,,,,,,,,,,,,,,,,,,,,,,,,,,,,,,,,,,,,,,,,25,1119.4847873000008,None,None,None,space,983.5785101000001,None,None,,,,,,,,,,,,,,,,,,,,,,,,,,,,,,,,,,MM_1002,2023-10-23_12h05.47.840,exp,2021.1.4,59.96343429758088,
,,,,0,0,0,0,,,,,,,,,,,,,,,,,,,,,,,,,,,,,,,,,,,,,,,,,,,,,,,,,,,,,,,,,,,,,,,,,,,,1130.54179788,None,,,,,,,,,,old,1125.7909842,None,1125.7988588199923,None,1127.2927139000003,None,1,1128.2928146000004,None,1129.258793,None,1129.258793,None,1129.258793,None,1129.258793,None,1129.258793,None,1129.258793,None,0.0615234375,-0.30859375,1,0,0,third_right,0.9990365800003929,None,,,,MM_1002,2023-10-23_12h05.47.840,exp,2021.1.4,59.96343429758088,
,,,,1,0,1,0,,,,,,,,,,,,,,,,,,,,,,,,,,,,,,,,,,,,,,,,,,,,,,,,,,,,,,,,,,,,,,,,,,,,1135.6736235800004,None,,,,,,,,,,old,1131.3044476000005,None,1131.30860016,None,1132.8077728000007,None,2,1133.8074875000002,None,1134.7738618000003,None,1134.7738618000003,None,1134.7738618000003,None,1134.7738618000003,None,1134.7738618000003,None,1134.7738618000003,None,-0.037109375,0.04296875,1,0,0,first_left,0.999202879999757,None,,,,MM_1002,2023-10-23_12h05.47.840,exp,2021.1.4,59.96343429758088,
,,,,2,0,2,0,,,,,,,,,,,,,,,,,,,,,,,,,,,,,,,,,,,,,,,,,,,,,,,,,,,,,,,,,,,,,,,,,,,,1141.2553742800005,None,,,,,,,,,,old,1136.4095256,None,1136.4070748999998,None,1137.9228966,None,3,1138.9226535000007,None,1139.8895263000004,None,1139.8895263000004,None,1139.8895263000004,None,1139.8895263000004,None,1139.8895263000004,None,1139.8895263000004,None,0.0048828125,-0.142578125,1,0,0,second_middle,0.9996984799990969,None,,,,MM_1002,2023-10-23_12h05.47.840,exp,2021.1.4,59.96343429758088,
,,,,3,0,3,0,,,,,,,,,,,,,,,,,,,,,,,,,,,,,,,,,,,,,,,,,,,,,,,,,,,,,,,,,,,,,,,,,,,,1147.1369660800005,None,,,,,,,,,,old,1141.9985370000004,None,1142.00594748,None,1143.5047027,None,4,1144.504355,None,1145.4707572000007,None,1145.4707572000007,None,1145.4707572000007,None,1145.4707572000007,None,1145.4707572000007,None,1145.4707572000007,None,0.0107421875,-0.3515625,1,0,0,third_right,0.999209279999377,None,,,,MM_1002,2023-10-23_12h05.47.840,exp,2021.1.4,59.96343429758088,
,,,,4,0,4,0,,,,,,,,,,,,,,,,,,,,,,,,,,,,,,,,,,,,,,,,,,,,,,,,,,,,,,,,,,,,,,,,,,,,1152.1526679800004,None,,,,,,,,,,old,1147.8694653000002,None,1147.8703728999994,None,1149.3696376000007,None,5,1150.3693483000006,None,1151.3357278000003,None,1151.3357278000003,None,1151.3357278000003,None,1151.3357278000003,None,1151.3357278000003,None,1151.3357278000003,None,-0.046875,0.05078125,1,0,0,first_left,0.9991710800004512,None,,,,MM_1002,2023-10-23_12h05.47.840,exp,2021.1.4,59.96343429758088,
