EncodingTrials.thisRepN,EncodingTrials.thisTrialN,EncodingTrials.thisN,EncodingTrials.thisIndex,RetrievalTrials.thisRepN,RetrievalTrials.thisTrialN,RetrievalTrials.thisN,RetrievalTrials.thisIndex,EncodingBlock2.thisRepN,EncodingBlock2.thisTrialN,EncodingBlock2.thisN,EncodingBlock2.thisIndex,RetrievalBlock2.thisRepN,RetrievalBlock2.thisTrialN,RetrievalBlock2.thisN,RetrievalBlock2.thisIndex,Instructions.started,Instructions.stopped,fixation.started,fixation.stopped,trialOrder,triplet1,triplet2,triplet3,Triplet1.started,Triplet1.stopped,Triplet2.started,Triplet2.stopped,Triplet3.started,Triplet3.stopped,sound_pop.started,sound_pop.stopped,sound_pop2.started,sound_pop2.stopped,sound_pop3.started,sound_pop3.stopped,Mask.started,Mask.stopped,encodingType,nextTrial,img1.started,img1.stopped,img2.started,img2.stopped,img3.started,img3.stopped,sound_pop4.started,sound_pop4.stopped,sound_pop5.started,sound_pop5.stopped,sound_pop6.started,sound_pop6.stopped,text_2.started,text_2.stopped,methodCheck,Method Clicked,text.started,text.stopped,sameText.started,sameText.stopped,diffText.started,diffText.stopped,leftCL.started,leftCL.stopped,rightCL.started,rightCL.stopped,MethodMouse.x,MethodMouse.y,MethodMouse.leftButton,MethodMouse.midButton,MethodMouse.rightButton,MethodMouse.time,MethodMouse.clicked_name,MethodMouse.started,MethodMouse.stopped,clickedSound.started,clickedSound.stopped,encodingTrials,BlockBreak.started,BlockBreak.stopped,text_4.started,text_4.stopped,start2.keys,start2.rt,start2.started,start2.stopped,retType,retIMG.started,retIMG.stopped,sound_pop7.started,sound_pop7.stopped,question_text.started,question_text.stopped,retTrials,decisionQ_2.started,decisionQ_2.stopped,first_left.started,first_left.stopped,second_middle.started,second_middle.stopped,third_right.started,third_right.stopped,First.started,First.stopped,Second.started,Second.stopped,Third.started,Third.stopped,Order_Position_Response.x,Order_Position_Response.y,Order_Position_Response.leftButton,Order_Position_Response.midButton,Order_Position_Response.rightButton,Order_Position_Response.clicked_name,Order_Position_Response.started,Order_Position_Response.stopped,retrievalTrials,retIMG,Trial_Order,participant,date,expName,psychopyVersion,frameRate,
0,0,0,0,,,,,,,,,,,,,84.5460882000043,None,89.01007750001736,None,MRL,images/OBJ_93.png,images/OBJ_54.png,images/OBJ_28.png,90.6494706000085,92.15992880001431,92.64357489999384,94.14313280000351,94.64299790002406,None,90.66060090000974,None,92.64361945998971,None,94.64254636002588,None,96.14210110000568,None,same,None,97.77443069999572,99.27494440000737,99.77436050004326,101.27436730003683,101.77427340002032,None,97.77509034000686,None,99.77485136000323,None,101.77424595999182,None,103.27334439998958,None,0,['leftCL'],104.27304659999209,None,104.27304659999209,None,104.27304659999209,None,104.27304659999209,None,104.27304659999209,None,-0.22265625,-0.3095703125,1,0,0,0.32946569996420294,leftCL,0.012516560032963753,None,104.60629636002122,None,,,,,,,,,,,,,,,,,,,,,,,,,,,,,,,,,,,,,,,,,,,OE1002,2023-10-10_16h57.35.922,exp,2021.1.4,60.117397251454214,
1,0,1,0,,,,,,,,,,,,,,,105.26239400001941,None,RLM,images/OBJ_46.png,images/OBJ_198.png,images/OBJ_167.png,106.82657670002664,108.33852729998762,108.8217148000258,110.32173470000271,110.82110699999612,None,106.82287484003463,None,108.82220976001699,None,110.82166266004205,None,112.3211865000194,None,same,None,113.86982490000082,115.36977900000056,115.86963820003439,117.36920499999542,117.86902400001418,None,113.87031763999256,None,115.86965116002247,None,117.8691227600153,None,119.36867220001295,None,0,['leftCL'],120.36835200001951,None,120.36835200001951,None,120.36835200001951,None,120.36835200001951,None,120.36835200001951,None,-0.197265625,-0.37890625,1,0,0,0.38326009997399524,leftCL,0.016358859953470528,None,120.75159535998827,None,,,,,,,,,,,,,,,,,,,,,,,,,,,,,,,,,,,,,,,,,,,OE1002,2023-10-10_16h57.35.922,exp,2021.1.4,60.117397251454214,
2,0,2,0,,,,,,,,,,,,,,,121.40296149998903,None,RML,images/OBJ_131.png,images/OBJ_130.png,images/OBJ_209.png,122.9624940000358,124.4671397000202,124.95084539998788,126.4504226000281,126.9502705000341,None,122.9676625400083,None,124.95086025999043,None,126.94975155998836,None,128.44980130001204,None,same,None,129.98906670004362,131.49845509999432,131.98166360001778,133.48168910003733,133.98109390004538,None,129.9988836400211,None,131.98169426002423,None,133.98155866003944,None,135.48116670001764,None,0,['leftCL'],136.48085200000787,None,136.48085200000787,None,136.48085200000787,None,136.48085200000787,None,136.48085200000787,None,-0.2197265625,-0.3818359375,1,0,0,0.34874670003773645,leftCL,0.014672359975520521,None,136.8307722600235,None,,,,,,,,,,,,,,,,,,,,,,,,,,,,,,,,,,,,,,,,,,,OE1002,2023-10-10_16h57.35.922,exp,2021.1.4,60.117397251454214,
3,0,3,0,,,,,,,,,,,,,,,137.4714101999998,None,RML,images/OBJ_71.png,images/OBJ_147.png,images/OBJ_150.png,139.02211349998834,140.52917019999586,141.01236809999682,142.51191030000336,143.0122647000244,None,139.02967664003373,None,141.0123365599953,None,143.01175976002705,None,144.5113563000341,None,same,None,146.0487950000097,147.56043970002793,148.04367600003025,149.5431724000373,150.0435265999986,None,146.06089913999895,None,148.04362726001418,None,150.04304385999566,None,151.54260069999145,None,0,['leftCL'],152.54231450002408,None,152.54231450002408,None,152.54231450002408,None,152.54231450002408,None,152.54231450002408,None,-0.21875,-0.390625,1,0,0,0.2837069999659434,leftCL,0.016373060003388673,None,152.82566436001215,None,,,,,,,,,,,,,,,,,,,,,,,,,,,,,,,,,,,,,,,,,,,OE1002,2023-10-10_16h57.35.922,exp,2021.1.4,60.117397251454214,
4,0,4,0,,,,,,,,,,,,,,,153.47182510001585,None,LMR,images/OBJ_102.png,images/OBJ_86.png,images/OBJ_15.png,155.02705209999112,156.54112589999568,157.02435310004512,158.52388910000445,159.02428180002607,None,155.02555694003823,None,157.02438076002872,None,159.02430025999783,None,160.52329020004254,None,same,None,162.06991880002897,163.5724550000159,164.0722853000043,165.57184109999798,166.07166399998823,None,162.07339234001702,None,164.07231435999856,None,166.07175196002353,None,167.57129600003827,None,0,['leftCL'],168.57101230003173,None,168.57101230003173,None,168.57101230003173,None,168.57101230003173,None,168.57101230003173,None,-0.2197265625,-0.3955078125,1,0,0,0.5166305000311695,leftCL,0.01636776002123952,None,169.0875415599963,None,,,,,,,,,,,,,,,,,,,,,,,,,,,,,,,,,,,,,,,,,,,OE1002,2023-10-10_16h57.35.922,exp,2021.1.4,60.117397251454214,
5,0,5,0,,,,,,,,,,,,,,,169.7331228000112,None,RLM,images/OBJ_97.png,images/OBJ_17.png,images/OBJ_2.png,171.28915910003707,172.80359940003837,173.28635360003682,174.78634920000331,175.2857648000354,None,171.2874514400377,None,173.28679286001133,None,175.28620935999206,None,176.7852847999893,None,diff,RML,178.3337011000258,179.83490429999074,180.33478450000985,181.8343104000087,182.33417340001324,None,178.33529374001083,None,180.33474516000715,None,182.33417216000962,None,183.83322410000255,None,1,['rightCL'],184.83294440002646,None,184.83294440002646,None,184.83294440002646,None,184.83294440002646,None,184.83294440002646,None,0.134765625,-0.3271484375,1,0,0,0.3165934000280686,rightCL,0.01635296002496034,None,185.14957316003856,None,,,,,,,,,,,,,,,,,,,,,,,,,,,,,,,,,,,,,,,,,,,OE1002,2023-10-10_16h57.35.922,exp,2021.1.4,60.117397251454214,
6,0,6,0,,,,,,,,,,,,,,,185.8015132000437,None,LMR,images/OBJ_114.png,images/OBJ_123.png,images/OBJ_94.png,187.36830900004134,188.88225900003454,189.3649599000346,190.86499979998916,191.36490950000007,None,187.36610924002017,None,189.36546196002163,None,191.36489245999255,None,192.8639578000293,None,same,RML,194.41271960001905,195.91352370003005,196.41291890002321,197.91247949999524,198.41282910003792,None,194.41394604000962,None,196.41341766004334,None,198.41283286001416,None,199.91188930004137,None,0,['leftCL'],200.91163560003042,None,200.91163560003042,None,200.91163560003042,None,200.91163560003042,None,200.91163560003042,None,-0.154296875,-0.34765625,1,0,0,0.29995519999647513,leftCL,0.016352360020391643,None,201.2120652600366,None,,,,,,,,,,,,,,,,,,,,,,,,,,,,,,,,,,,,,,,,,,,OE1002,2023-10-10_16h57.35.922,exp,2021.1.4,60.117397251454214,
7,0,7,0,,,,,,,,,,,,,,,201.85291860002326,None,MLR,images/OBJ_4.png,images/OBJ_129.png,images/OBJ_103.png,203.4049530000193,204.91043340001488,205.39365490002092,206.8931758000399,207.39305770001374,None,203.41145803998225,None,205.394161560043,None,207.39304856000817,None,208.89261310000438,None,same,RML,210.4323008999927,211.94174550002208,212.42491460003657,213.924982800032,214.42482390004443,None,210.44220064001857,None,212.4249375600426,None,214.42484376002685,None,215.9239182000165,None,0,['leftCL'],216.92360939999344,None,216.92360939999344,None,216.92360939999344,None,216.92360939999344,None,216.92360939999344,None,-0.189453125,-0.3916015625,1,0,0,0.3498534000245854,leftCL,0.016372559999581426,None,217.2735285600007,None,,,,,,,,,,,,,,,,,,,,,,,,,,,,,,,,,,,,,,,,,,,OE1002,2023-10-10_16h57.35.922,exp,2021.1.4,60.117397251454214,
8,0,8,0,,,,,,,,,,,,,,,217.92914610001026,None,LMR,images/OBJ_78.png,images/OBJ_59.png,images/OBJ_1.png,219.48085380002158,220.98912460001884,221.47277520003263,222.97187890001805,223.47221470001386,None,219.4901135400054,None,221.47279426000895,None,223.47219126001582,None,224.97128300002078,None,same,RML,226.50652360002277,228.02086280001095,228.50405510002747,230.0031585000106,230.50298970000586,None,226.50459117999415,None,228.50409236002596,None,230.5030273600074,None,232.00304889999097,None,0,['leftCL'],233.00273619999643,None,233.00273619999643,None,233.00273619999643,None,233.00273619999643,None,233.00273619999643,None,-0.2177734375,-0.361328125,1,0,0,0.41704319999553263,leftCL,0.016317559988237917,None,233.41933036001282,None,,,,,,,,,,,,,,,,,,,,,,,,,,,,,,,,,,,,,,,,,,,OE1002,2023-10-10_16h57.35.922,exp,2021.1.4,60.117397251454214,
9,0,9,0,,,,,,,,,,,,,,,234.0647072000429,None,LMR,images/OBJ_33.png,images/OBJ_202.png,images/OBJ_40.png,235.6148057000246,237.11773050000193,237.60142680001445,239.10097319999477,239.61699470004532,None,235.61879553998588,None,237.60143145999754,None,239.61751306004007,None,241.11658860003809,None,same,RML,242.65848109999206,244.16567810002016,244.64891109999735,246.1489596000174,246.6483094000141,None,242.66661213999615,None,244.6493823600409,None,246.64884785998728,None,248.14787300000899,None,0,['leftCL'],249.14752769999905,None,249.14752769999905,None,249.14752769999905,None,249.14752769999905,None,249.14752769999905,None,-0.2333984375,-0.35546875,1,0,0,0.31608860002597794,leftCL,0.016374360071495175,None,249.46417685999185,None,,,,,,,,,,,,,,,,,,,,,,,,,,,,,,,,,,,,,,,,,,,OE1002,2023-10-10_16h57.35.922,exp,2021.1.4,60.117397251454214,
10,0,10,0,,,,,,,,,,,,,,,250.1141920000082,None,MRL,images/OBJ_38.png,images/OBJ_158.png,images/OBJ_83.png,251.66274930001236,253.16307539999252,253.66295160003938,255.16295900003752,255.66281950002303,None,251.66409653999145,None,253.66299426002078,None,255.66235786000615,None,257.16238950000843,None,diff,LMR,258.70492920000106,260.2115201000124,260.69423710001865,262.1942712000455,262.69366460002493,None,258.7115248400136,None,260.69423375999907,None,262.69365995999544,None,264.19372820004355,None,1,['rightCL'],265.19339239998953,None,265.19339239998953,None,265.19339239998953,None,265.19339239998953,None,265.19339239998953,None,0.15234375,-0.39453125,1,0,0,0.44950210000388324,rightCL,0.01637516001937911,None,265.6428539600398,None,,,,,,,,,,,,,,,,,,,,,,,,,,,,,,,,,,,,,,,,,,,OE1002,2023-10-10_16h57.35.922,exp,2021.1.4,60.117397251454214,
11,0,11,0,,,,,,,,,,,,,,,266.2853214000352,None,LMR,images/OBJ_99.png,images/OBJ_72.png,images/OBJ_191.png,267.84068890003255,269.34220010001445,269.84159650001675,271.34160059998976,271.84145860001445,None,267.84224673998546,None,269.84205506002183,None,271.8414691600425,None,273.340606999991,None,diff,MLR,274.88407730002655,276.39014860003954,276.87336240004515,278.3724736000295,278.8723201000248,None,274.8900481399964,None,276.8728551600303,None,278.87231206002764,None,280.371913400013,None,1,['rightCL'],281.3715840000077,None,281.3715840000077,None,281.3715840000077,None,281.3715840000077,None,281.3715840000077,None,0.12890625,-0.27734375,1,0,0,0.3666539000114426,rightCL,0.01633486000355333,None,281.738169360027,None,,,,,,,,,,,,,,,,,,,,,,,,,,,,,,,,,,,,,,,,,,,OE1002,2023-10-10_16h57.35.922,exp,2021.1.4,60.117397251454214,
12,0,12,0,,,,,,,,,,,,,,,282.3879192000022,None,RLM,images/OBJ_199.png,images/OBJ_50.png,images/OBJ_193.png,283.9305848000222,285.4374949000194,285.92073260003235,287.42026660003467,287.9201230999897,None,283.93755174000984,None,285.920737460017,None,287.9201200600306,None,289.41926350002177,None,same,MLR,290.95824380003614,292.4687860000413,292.9520417000167,294.45157070003916,294.95141109998804,None,290.96872514000864,None,292.95201575999965,None,294.95144185999527,None,296.45097930001793,None,0,['leftCL'],297.4502281000023,None,297.4502281000023,None,297.4502281000023,None,297.4502281000023,None,297.4502281000023,None,-0.146484375,-0.326171875,1,0,0,0.3503928999998607,leftCL,0.01631875999737531,None,297.8006532600208,None,,,,,,,,,,,,,,,,,,,,,,,,,,,,,,,,,,,,,,,,,,,OE1002,2023-10-10_16h57.35.922,exp,2021.1.4,60.117397251454214,
13,0,13,0,,,,,,,,,,,,,,,298.44693050003843,None,RML,images/OBJ_126.png,images/OBJ_67.png,images/OBJ_146.png,299.992796000035,301.49951300001703,301.9822722999961,303.48227090004366,303.9821344999946,None,299.99955933998575,None,301.9827525599918,None,303.9821469600371,None,305.4812522000284,None,same,MLR,307.02015080000274,308.5307976999902,309.01400910003576,310.51311699999496,311.0129847000353,None,307.03073954003634,None,309.01401466002574,None,311.0134819599858,None,312.51296650001314,None,0,['leftCL'],313.5127492999891,None,313.5127492999891,None,313.5127492999891,None,313.5127492999891,None,313.5127492999891,None,-0.154296875,-0.349609375,1,0,0,0.3161437999806367,leftCL,0.01634955999907106,None,313.82882685999505,None,,,,,,,,,,,,,,,,,,,,,,,,,,,,,,,,,,,,,,,,,,,OE1002,2023-10-10_16h57.35.922,exp,2021.1.4,60.117397251454214,
14,0,14,0,,,,,,,,,,,,,,,314.47816649999004,None,MLR,images/OBJ_48.png,images/OBJ_141.png,images/OBJ_13.png,316.02743030001875,317.5281665000366,318.0280294000404,319.5271254000254,320.02698289998807,None,316.0282102399855,None,318.02754805998995,None,320.0269725600316,None,321.5270133999875,None,same,MLR,323.0712636000244,324.57614230003674,325.05931939999573,326.55889350001235,327.058265700005,None,323.07613644001543,None,325.05884926003057,None,327.0582559599949,None,328.5583356000134,None,0,['leftCL'],329.55806740000844,None,329.55806740000844,None,329.55806740000844,None,329.55806740000844,None,329.55806740000844,None,-0.16796875,-0.37109375,1,0,0,0.29998229996999726,leftCL,0.016363459988497198,None,329.85751396003764,None,,,,,,,,,,,,,,,,,,,,,,,,,,,,,,,,,,,,,,,,,,,OE1002,2023-10-10_16h57.35.922,exp,2021.1.4,60.117397251454214,
15,0,15,0,,,,,,,,,,,,,,,330.4971522000269,None,RML,images/OBJ_197.png,images/OBJ_95.png,images/OBJ_9.png,332.05758640001295,333.55637810000917,334.05620560003445,335.55582499998854,336.0556776000303,None,332.05731943998256,None,334.0567433600023,None,336.05567676002977,None,337.55559709999943,None,same,MLR,339.10002060001716,340.6042918000021,341.0880298000411,342.587068199995,343.08693889999995,None,339.1048326400109,None,341.0875548600394,None,343.08698345999585,None,344.58647989999736,None,0,['leftCL'],345.5862518000067,None,345.5862518000067,None,345.5862518000067,None,345.5862518000067,None,345.5862518000067,None,-0.166015625,-0.3564453125,1,0,0,0.34994160005589947,leftCL,0.016328360012266785,None,345.93617116001553,None,,,,,,,,,,,,,,,,,,,,,,,,,,,,,,,,,,,,,,,,,,,OE1002,2023-10-10_16h57.35.922,exp,2021.1.4,60.117397251454214,
16,0,16,0,,,,,,,,,,,,,,,346.5929763999884,None,LRM,images/OBJ_89.png,images/OBJ_6.png,images/OBJ_70.png,348.1445056000375,349.6516864000005,350.1348607999971,351.6344304000377,352.13432750001084,None,348.1522359400173,None,350.13489206000816,None,352.1343043600151,None,353.63384550000774,None,same,MLR,355.17028040002333,356.68298969999887,357.16619070002344,358.6662473999895,359.16558580001583,None,355.1672019799997,None,357.16620726003896,None,359.16563186002315,None,360.665139299992,None,0,['leftCL'],361.66534950002097,None,361.66534950002097,None,361.66534950002097,None,361.66534950002097,None,361.66534950002097,None,-0.1083984375,-0.3974609375,1,0,0,0.5165754000190645,leftCL,0.016334059997461736,None,362.1819535600313,None,,,,,,,,,,,,,,,,,,,,,,,,,,,,,,,,,,,,,,,,,,,OE1002,2023-10-10_16h57.35.922,exp,2021.1.4,60.117397251454214,
17,0,17,0,,,,,,,,,,,,,,,362.8281857999973,None,LRM,images/OBJ_64.png,images/OBJ_65.png,images/OBJ_96.png,364.3744994000299,365.88078780000797,366.36397579999175,367.86354809999466,368.36338930000784,None,364.38131444002505,None,366.3641333600332,None,368.3634355600167,None,369.8628632000182,None,diff,RLM,371.40131390001625,372.9120768000139,373.3952705000411,374.89482270000735,375.39422320004087,None,371.4125250400161,None,373.3952934599889,None,375.39423316000614,None,376.8942511000205,None,1,['rightCL'],377.8940164000378,None,377.8940164000378,None,377.8940164000378,None,377.8940164000378,None,377.8940164000378,None,0.1689453125,-0.3740234375,1,0,0,0.3660992000368424,rightCL,0.016334660002030432,None,378.26010706001546,None,,,,,,,,,,,,,,,,,,,,,,,,,,,,,,,,,,,,,,,,,,,OE1002,2023-10-10_16h57.35.922,exp,2021.1.4,60.117397251454214,
18,0,18,0,,,,,,,,,,,,,,,378.90897660003975,None,RML,images/OBJ_21.png,images/OBJ_51.png,images/OBJ_24.png,380.45910300000105,381.9589808000019,382.4593512000283,383.9589108999935,384.45872550003696,None,380.4600183400093,None,382.45933825999384,None,384.458781560004,None,385.95782260003034,None,diff,LMR,387.50047100003576,389.00740980001865,389.49060940003255,390.9901433000341,391.48959440004546,None,387.50734103998406,None,389.49063616000933,None,391.4896168599895,None,392.989107100002,None,1,['rightCL'],393.9888237999985,None,393.9888237999985,None,393.9888237999985,None,393.9888237999985,None,393.9888237999985,None,0.15234375,-0.3564453125,1,0,0,0.3159944000071846,rightCL,0.01636026002233848,None,394.30543796001587,None,,,,,,,,,,,,,,,,,,,,,,,,,,,,,,,,,,,,,,,,,,,OE1002,2023-10-10_16h57.35.922,exp,2021.1.4,60.117397251454214,
19,0,19,0,,,,,,,,,,,,,,,394.94999689998804,None,RML,images/OBJ_25.png,images/OBJ_135.png,images/OBJ_196.png,396.5060834999895,398.0214263999951,398.5041838000179,400.004250900005,400.50406450004084,None,396.5053024400026,None,398.50466376001134,None,400.5040868600423,None,402.0031541000353,None,same,LMR,403.55028540000785,405.0527313000057,405.55213450000156,407.0521577000036,407.5520245000371,None,403.55275194001155,None,405.5526042600337,None,407.5515706600214,None,409.0511026000022,None,0,['leftCL'],410.0508492999943,None,410.0508492999943,None,410.0508492999943,None,410.0508492999943,None,410.0508492999943,None,-0.2041015625,-0.384765625,1,0,0,0.5160505999810994,leftCL,0.0163570599979721,None,410.5673589600425,None,,,,,,,,,,,,,,,,,,,,,,,,,,,,,,,,,,,,,,,,,,,OE1002,2023-10-10_16h57.35.922,exp,2021.1.4,60.117397251454214,
20,0,20,0,,,,,,,,,,,,,,,411.2113185999915,None,RML,images/OBJ_110.png,images/OBJ_151.png,images/OBJ_79.png,412.75967180001317,414.26671510003507,414.74944849999156,416.24905580002815,416.7488640000229,None,412.76682284000566,None,414.7494451600302,None,416.74887966003155,None,418.2484753000317,None,same,LMR,419.7866789000109,421.2980225000065,421.78119190002326,423.2803002000437,423.7801597000216,None,419.79842704002516,None,421.7812260599982,None,423.7806780600164,None,425.2797258000355,None,0,['leftCL'],426.2794530999963,None,426.2794530999963,None,426.2794530999963,None,426.2794530999963,None,426.2794530999963,None,-0.2177734375,-0.404296875,1,0,0,0.4670084999524988,leftCL,0.016358360007870942,None,427.1458782600181,None,,,,,,,,,,,,,,,,,,,,,,,,,,,,,,,,,,,,,,,,,,,OE1002,2023-10-10_16h57.35.922,exp,2021.1.4,60.117397251454214,
21,0,21,0,,,,,,,,,,,,,,,427.7936360000167,None,RLM,images/OBJ_7.png,images/OBJ_154.png,images/OBJ_107.png,429.3417731000227,430.84526090003783,431.32843430002686,432.82804540003417,433.32784620003076,None,429.3458300400293,None,431.32847396004365,None,433.3278751600243,None,434.8274259000318,None,same,LMR,436.36857290001353,437.8765417000395,438.3597410999937,439.85929930000566,440.3591610000003,None,436.376584040036,None,438.35976566001193,None,440.3592166600225,None,441.8583218000131,None,0,['leftCL'],442.85846389998915,None,442.85846389998915,None,442.85846389998915,None,442.85846389998915,None,442.85846389998915,None,-0.2001953125,-0.24609375,1,0,0,0.34947899996768683,leftCL,0.016362459980882704,None,443.20788806001076,None,,,,,,,,,,,,,,,,,,,,,,,,,,,,,,,,,,,,,,,,,,,OE1002,2023-10-10_16h57.35.922,exp,2021.1.4,60.117397251454214,
22,0,22,0,,,,,,,,,,,,,,,443.8526477999985,None,RML,images/OBJ_188.png,images/OBJ_31.png,images/OBJ_53.png,445.39806690003024,446.9072841000161,447.3904530000291,448.8895466999966,449.38935660000425,None,445.40732164003424,None,447.3904555599962,None,449.3893692599901,None,450.88944220001576,None,same,LMR,452.444679600012,453.9552010000334,454.43841270002304,455.9374542000005,456.43743990000803,None,452.4552896400332,None,454.43841276002934,None,456.43784506001396,None,457.9369155000313,None,0,['leftCL'],458.9366816999973,None,458.9366816999973,None,458.9366816999973,None,458.9366816999973,None,458.9366816999973,None,-0.2001953125,-0.24609375,1,0,0,0.31614869995974004,leftCL,0.016333759995177388,None,459.25326866004036,None,,,,,,,,,,,,,,,,,,,,,,,,,,,,,,,,,,,,,,,,,,,OE1002,2023-10-10_16h57.35.922,exp,2021.1.4,60.117397251454214,
23,0,23,0,,,,,,,,,,,,,,,459.9034304000088,None,RLM,images/OBJ_77.png,images/OBJ_43.png,images/OBJ_84.png,461.4549733999884,462.969293800008,463.45201360003557,464.95158110000193,465.45136599999387,None,461.45262383999074,None,463.4524999600195,None,465.4514039599977,None,466.9509709000122,None,same,LMR,468.49988630000735,470.0005713000428,470.5004606000148,471.99947929999325,472.4998138000374,None,468.5005100400071,None,470.50042605999045,None,472.4998487600184,None,473.9994000000297,None,0,['leftCL'],474.99869300000137,None,474.99869300000137,None,474.99869300000137,None,474.99869300000137,None,474.99869300000137,None,-0.1640625,-0.3505859375,1,0,0,0.28362589998869225,leftCL,0.016252259956672788,None,475.2823481599859,None,,,,,,,,,,,,,,,,,,,,,,,,,,,,,,,,,,,,,,,,,,,OE1002,2023-10-10_16h57.35.922,exp,2021.1.4,60.117397251454214,
24,0,24,0,,,,,,,,,,,,,,,475.92525800003204,None,LMR,images/OBJ_194.png,images/OBJ_178.png,images/OBJ_155.png,477.4777190000168,478.9807742999983,479.48113950004335,480.9802336000139,481.4800299000344,None,477.4813174400246,None,479.4806581599929,None,481.480040560005,None,482.97958119999385,None,same,LMR,484.5233739000396,486.0292439000332,486.5124083000119,488.0119646000094,488.511315700016,None,484.52915554002396,None,486.5119097600051,None,488.51133986003117,None,490.0114147000131,None,0,['leftCL'],491.0111110000289,None,491.0111110000289,None,491.0111110000289,None,491.0111110000289,None,491.0111110000289,None,-0.166015625,-0.3896484375,1,0,0,0.38276970002334565,leftCL,0.01632486004382372,None,491.393892560032,None,,,,,,,,,,,,,,,,,,,,,,,,,,,,,,,,,,,,,,,,,,,OE1002,2023-10-10_16h57.35.922,exp,2021.1.4,60.117397251454214,
,,,,,,,,,,,,,,,,,,,,,,,,,,,,,,,,,,,,,,,,,,,,,,,,,,,,,,,,,,,,,,,,,,,,,,,,,,,,,25,491.9024061000091,None,None,None,q,431.0122344000265,None,None,,,,,,,,,,,,,,,,,,,,,,,,,,,,,,,,,,OE1002,2023-10-10_16h57.35.922,exp,2021.1.4,60.117397251454214,
,,,,0,0,0,0,,,,,,,,,,,,,,,,,,,,,,,,,,,,,,,,,,,,,,,,,,,,,,,,,,,,,,,,,,,,,,,,,,,,523.1351658599975,None,,,,,,,,,,old,515.5288155000308,None,515.5370911200182,None,517.036399100034,None,1,518.0360999000259,None,519.002895200043,None,519.002895200043,None,519.002895200043,None,519.002895200043,None,519.002895200043,None,519.002895200043,None,0.02734375,-0.26953125,1,0,0,third_right,0.9990606600185856,None,,,,OE1002,2023-10-10_16h57.35.922,exp,2021.1.4,60.117397251454214,
,,,,1,0,1,0,,,,,,,,,,,,,,,,,,,,,,,,,,,,,,,,,,,,,,,,,,,,,,,,,,,,,,,,,,,,,,,,,,,,528.0836119599932,None,,,,,,,,,,old,523.8022569000022,None,523.801360659994,None,525.3173247000086,None,2,526.317519400036,None,527.2839261000045,None,527.2839261000045,None,527.2839261000045,None,527.2839261000045,None,527.2839261000045,None,527.2839261000045,None,-0.0361328125,0.0732421875,1,0,0,first_left,0.9992207600153051,None,,,,OE1002,2023-10-10_16h57.35.922,exp,2021.1.4,60.117397251454214,
,,,,2,0,2,0,,,,,,,,,,,,,,,,,,,,,,,,,,,,,,,,,,,,,,,,,,,,,,,,,,,,,,,,,,,,,,,,,,,,532.5652953599871,None,,,,,,,,,,old,528.7462006999995,None,528.7499449599942,None,530.2497577000177,None,3,531.2494664000114,None,532.215811800037,None,532.215811800037,None,532.215811800037,None,532.215811800037,None,532.215811800037,None,532.215811800037,None,-0.029296875,0.0751953125,1,0,0,first_left,0.9995976600330323,None,,,,OE1002,2023-10-10_16h57.35.922,exp,2021.1.4,60.117397251454214,
,,,,3,0,3,0,,,,,,,,,,,,,,,,,,,,,,,,,,,,,,,,,,,,,,,,,,,,,,,,,,,,,,,,,,,,,,,,,,,,537.0311490599939,None,,,,,,,,,,old,533.2312530000345,None,533.2319833600137,None,534.7312945000012,None,4,535.7314459999907,None,536.6973463000031,None,536.6973463000031,None,536.6973463000031,None,536.6973463000031,None,536.6973463000031,None,536.6973463000031,None,-0.013671875,0.0712890625,1,0,0,first_left,0.9991354599478655,None,,,,OE1002,2023-10-10_16h57.35.922,exp,2021.1.4,60.117397251454214,
,,,,4,0,4,0,,,,,,,,,,,,,,,,,,,,,,,,,,,,,,,,,,,,,,,,,,,,,,,,,,,,,,,,,,,,,,,,,,,,541.7792764599959,None,,,,,,,,,,old,537.6982119000168,None,537.6977929599758,None,539.2137985000154,None,5,540.212995000009,None,541.1793969999999,None,541.1793969999999,None,541.1793969999999,None,541.1793969999999,None,541.1793969999999,None,541.1793969999999,None,0.0283203125,-0.2265625,1,0,0,third_right,0.999150860006921,None,,,,OE1002,2023-10-10_16h57.35.922,exp,2021.1.4,60.117397251454214,
,,,,5,0,5,0,,,,,,,,,,,,,,,,,,,,,,,,,,,,,,,,,,,,,,,,,,,,,,,,,,,,,,,,,,,,,,,,,,,,546.3445836600091,None,,,,,,,,,,old,542.4434188000159,None,542.4464300600172,None,543.945705900027,None,6,544.9454493999947,None,545.911367600027,None,545.911367600027,None,545.911367600027,None,545.911367600027,None,545.911367600027,None,545.911367600027,None,0.0244140625,-0.3037109375,1,0,0,third_right,0.999201959988568,None,,,,OE1002,2023-10-10_16h57.35.922,exp,2021.1.4,60.117397251454214,
,,,,6,0,6,0,,,,,,,,,,,,,,,,,,,,,,,,,,,,,,,,,,,,,,,,,,,,,,,,,,,,,,,,,,,,,,,,,,,,553.209254059993,None,,,,,,,,,,old,547.007762400026,None,547.0117615599826,None,548.510603600007,None,7,549.5102758000139,None,550.4771777000278,None,550.4771777000278,None,550.4771777000278,None,550.4771777000278,None,550.4771777000278,None,550.4771777000278,None,-0.0068359375,-0.1328125,1,0,0,second_middle,0.9996578599675559,None,,,,OE1002,2023-10-10_16h57.35.922,exp,2021.1.4,60.117397251454214,
,,,,7,0,7,0,,,,,,,,,,,,,,,,,,,,,,,,,,,,,,,,,,,,,,,,,,,,,,,,,,,,,,,,,,,,,,,,,,,,557.9079273600306,None,,,,,,,,,,old,553.8789671999984,None,553.876428860001,None,555.3919659000239,None,8,556.391684900038,None,557.3747040000162,None,557.3747040000162,None,557.3747040000162,None,557.3747040000162,None,557.3747040000162,None,557.3747040000162,None,0.005859375,-0.2431640625,1,0,0,third_right,1.015661559998989,None,,,,OE1002,2023-10-10_16h57.35.922,exp,2021.1.4,60.117397251454214,
,,,,8,0,8,0,,,,,,,,,,,,,,,,,,,,,,,,,,,,,,,,,,,,,,,,,,,,,,,,,,,,,,,,,,,,,,,,,,,,562.5903795600112,None,,,,,,,,,,old,558.5785393000115,None,558.5746503599745,None,560.090582600038,None,9,561.090761600004,None,562.0566614000127,None,562.0566614000127,None,562.0566614000127,None,562.0566614000127,None,562.0566614000127,None,562.0566614000127,None,0.013671875,-0.2734375,1,0,0,third_right,0.9991235599736683,None,,,,OE1002,2023-10-10_16h57.35.922,exp,2021.1.4,60.117397251454214,
,,,,9,0,9,0,,,,,,,,,,,,,,,,,,,,,,,,,,,,,,,,,,,,,,,,,,,,,,,,,,,,,,,,,,,,,,,,,,,,567.5217470599979,None,,,,,,,,,,old,563.2578749000095,None,563.2565481599828,None,564.7730285000289,None,10,565.7722688000067,None,566.7391062999959,None,566.7391062999959,None,566.7391062999959,None,566.7391062999959,None,566.7391062999959,None,566.7391062999959,None,-0.0244140625,0.05078125,1,0,0,first_left,0.9995831600390375,None,,,,OE1002,2023-10-10_16h57.35.922,exp,2021.1.4,60.117397251454214,
,,,,10,0,10,0,,,,,,,,,,,,,,,,,,,,,,,,,,,,,,,,,,,,,,,,,,,,,,,,,,,,,,,,,,,,,,,,,,,,572.437184759992,None,,,,,,,,,,old,568.1905759000219,None,568.1884884600237,None,569.7044701999985,None,11,570.7046049000346,None,571.6710334999952,None,571.6710334999952,None,571.6710334999952,None,571.6710334999952,None,571.6710334999952,None,571.6710334999952,None,0.0185546875,-0.2490234375,1,0,0,third_right,0.9991567600518465,None,,,,OE1002,2023-10-10_16h57.35.922,exp,2021.1.4,60.117397251454214,
,,,,11,0,11,0,,,,,,,,,,,,,,,,,,,,,,,,,,,,,,,,,,,,,,,,,,,,,,,,,,,,,,,,,,,,,,,,,,,,577.0023584600364,None,,,,,,,,,,old,573.1033253000351,None,573.1041835599987,None,574.6030135999899,None,12,575.6027484000078,None,576.5691056000069,None,576.5691056000069,None,576.5691056000069,None,576.5691056000069,None,576.5691056000069,None,576.5691056000069,None,0.0126953125,-0.0791015625,1,0,0,second_middle,1.015315360040404,None,,,,OE1002,2023-10-10_16h57.35.922,exp,2021.1.4,60.117397251454214,
,,,,12,0,12,0,,,,,,,,,,,,,,,,,,,,,,,,,,,,,,,,,,,,,,,,,,,,,,,,,,,,,,,,,,,,,,,,,,,,581.5010455599928,None,,,,,,,,,,old,577.6710455000284,None,577.6695232599683,None,579.1850201000343,None,13,580.1851838000002,None,581.1682769000181,None,581.1682769000181,None,581.1682769000181,None,581.1682769000181,None,581.1682769000181,None,581.1682769000181,None,0.00390625,-0.2578125,1,0,0,third_right,1.015893860021606,None,,,,OE1002,2023-10-10_16h57.35.922,exp,2021.1.4,60.117397251454214,
,,,,13,0,13,0,,,,,,,,,,,,,,,,,,,,,,,,,,,,,,,,,,,,,,,,,,,,,,,,,,,,,,,,,,,,,,,,,,,,585.9497697600106,None,,,,,,,,,,old,582.1650101999985,None,582.1682214600092,None,583.6670188000426,None,14,584.6667533,None,585.6331318999873,None,585.6331318999873,None,585.6331318999873,None,585.6331318999873,None,585.6331318999873,None,585.6331318999873,None,0.0078125,-0.2685546875,1,0,0,third_right,0.9991540599730797,None,,,,OE1002,2023-10-10_16h57.35.922,exp,2021.1.4,60.117397251454214,
,,,,14,0,14,0,,,,,,,,,,,,,,,,,,,,,,,,,,,,,,,,,,,,,,,,,,,,,,,,,,,,,,,,,,,,,,,,,,,,592.4145441600064,None,,,,,,,,,,old,586.6166335000307,None,586.6164662599855,None,588.1162348000216,None,15,589.1159281000146,None,590.0818886000197,None,590.0818886000197,None,590.0818886000197,None,590.0818886000197,None,590.0818886000197,None,590.0818886000197,None,0.009765625,-0.150390625,1,0,0,second_middle,0.9991562600480393,None,,,,OE1002,2023-10-10_16h57.35.922,exp,2021.1.4,60.117397251454214,
,,,,15,0,15,0,,,,,,,,,,,,,,,,,,,,,,,,,,,,,,,,,,,,,,,,,,,,,,,,,,,,,,,,,,,,,,,,,,,,596.8965695600433,None,,,,,,,,,,old,593.0739617000218,None,593.0817073599843,None,594.5805349000148,None,16,595.5802522000158,None,596.5471234000288,None,596.5471234000288,None,596.5471234000288,None,596.5471234000288,None,596.5471234000288,None,596.5471234000288,None,0.0244140625,-0.0908203125,1,0,0,second_middle,0.9996861599502154,None,,,,OE1002,2023-10-10_16h57.35.922,exp,2021.1.4,60.117397251454214,
,,,,16,0,16,0,,,,,,,,,,,,,,,,,,,,,,,,,,,,,,,,,,,,,,,,,,,,,,,,,,,,,,,,,,,,,,,,,,,,601.5619204600167,None,,,,,,,,,,old,597.569358800014,None,597.5804473199998,None,599.0792337000021,None,17,600.0794436000288,None,601.0457963999943,None,601.0457963999943,None,601.0457963999943,None,601.0457963999943,None,601.0457963999943,None,601.0457963999943,None,0.01171875,-0.2744140625,1,0,0,third_right,0.9991647599963471,None,,,,OE1002,2023-10-10_16h57.35.922,exp,2021.1.4,60.117397251454214,
,,,,17,0,17,0,,,,,,,,,,,,,,,,,,,,,,,,,,,,,,,,,,,,,,,,,,,,,,,,,,,,,,,,,,,,,,,,,,,,606.0772586599866,None,,,,,,,,,,old,602.2229123000288,None,602.2290472600085,None,603.7278480000095,None,18,604.7275317999884,None,605.6944688000367,None,605.6944688000367,None,605.6944688000367,None,605.6944688000367,None,605.6944688000367,None,605.6944688000367,None,0.0234375,-0.287109375,1,0,0,third_right,0.9992274599499069,None,,,,OE1002,2023-10-10_16h57.35.922,exp,2021.1.4,60.117397251454214,
,,,,18,0,18,0,,,,,,,,,,,,,,,,,,,,,,,,,,,,,,,,,,,,,,,,,,,,,,,,,,,,,,,,,,,,,,,,,,,,610.7092293600377,None,,,,,,,,,,old,606.7468784000375,None,606.7444526600244,None,608.2604229000281,None,19,609.2595514000277,None,610.2259672000073,None,610.2259672000073,None,610.2259672000073,None,610.2259672000073,None,610.2259672000073,None,610.2259672000073,None,-0.033203125,0.0595703125,1,0,0,first_left,0.9991825600154698,None,,,,OE1002,2023-10-10_16h57.35.922,exp,2021.1.4,60.117397251454214,
,,,,19,0,19,0,,,,,,,,,,,,,,,,,,,,,,,,,,,,,,,,,,,,,,,,,,,,,,,,,,,,,,,,,,,,,,,,,,,,615.2750283600122,None,,,,,,,,,,old,611.3771751000313,None,611.3764285599988,None,612.8919585000258,None,20,613.8916229000315,None,614.858437900024,None,614.858437900024,None,614.858437900024,None,614.858437900024,None,614.858437900024,None,614.858437900024,None,0.0263671875,-0.2470703125,1,0,0,third_right,0.9993635599967092,None,,,,OE1002,2023-10-10_16h57.35.922,exp,2021.1.4,60.117397251454214,
,,,,,,,,0,0,0,0,,,,,615.7879069999908,None,625.1024842000334,None,,images/OBJ_93.png,images/OBJ_54.png,images/OBJ_28.png,626.6466629999923,628.1545948000276,628.6378065000172,630.1368692000397,630.63674300001,None,626.654599840031,None,628.6378576600051,None,630.6366973600176,None,632.1367712999927,None,same,LMR,633.6942097000428,635.202546000015,635.6852415000321,637.1848374000401,637.6846399999922,None,633.7024410399957,None,635.6853230600187,None,637.6852108600375,None,639.1842953999876,None,0,['leftCL'],640.1844284000108,None,640.1844284000108,None,640.1844284000108,None,640.1844284000108,None,640.1844284000108,None,-0.1337890625,-0.2802734375,1,0,0,0.5982514999923296,leftCL,0.014674559992272407,None,640.7838120600151,None,1,,,,,,,,,,,,,,,,,,,,,,,,,,,,,,,,,,,,,,,20,images/OBJ_94.png,MRL,OE1002,2023-10-10_16h57.35.922,exp,2021.1.4,60.117397251454214,
,,,,,,,,1,0,1,0,,,,,,,641.438574800035,None,,images/OBJ_46.png,images/OBJ_198.png,images/OBJ_167.png,642.9986980000394,644.4998622999992,644.9996943000006,646.4992721999879,646.9991455000127,None,642.9999171400326,None,644.999737060041,None,646.9992017600395,None,648.4982405999908,None,same,LMR,650.046613100043,651.5473089000443,652.047137400019,653.5467907999991,654.0471016000374,None,650.0477342399885,None,652.0471607600281,None,654.0465841600031,None,655.5461759000318,None,0,['leftCL'],656.5458947000443,None,656.5458947000443,None,656.5458947000443,None,656.5458947000443,None,656.5458947000443,None,-0.158203125,-0.318359375,1,0,0,0.3328116000047885,leftCL,0.016334359999746084,None,656.8791700600356,None,2,,,,,,,,,,,,,,,,,,,,,,,,,,,,,,,,,,,,,,,,,LMR,OE1002,2023-10-10_16h57.35.922,exp,2021.1.4,60.117397251454214,
,,,,,,,,2,0,2,0,,,,,,,657.5297386000166,None,,images/OBJ_131.png,images/OBJ_130.png,images/OBJ_209.png,659.0852599000209,660.5946817999939,661.0783829000429,662.5779104999965,663.0777892000042,None,659.0952899399912,None,661.0778946599982,None,663.0777852600382,None,664.5773772000102,None,same,LMR,666.1178571000346,667.6264691000106,668.1096599000157,669.608718500007,670.1085924000363,None,666.1268607399892,None,668.1096975600173,None,670.1085849600437,None,671.6081417000387,None,0,['leftCL'],672.6078617000021,None,672.6078617000021,None,672.6078617000021,None,672.6078617000021,None,672.6078617000021,None,-0.111328125,-0.3251953125,1,0,0,0.5832562999567017,leftCL,0.016364259994588792,None,673.1910640600196,None,3,,,,,,,,,,,,,,,,,,,,,,,,,,,,,,,,,,,,,,,,,LMR,OE1002,2023-10-10_16h57.35.922,exp,2021.1.4,60.117397251454214,
,,,,,,,,3,0,3,0,,,,,,,673.840682100039,None,,images/OBJ_71.png,images/OBJ_147.png,images/OBJ_150.png,675.3786530999932,676.8904341000016,677.3736110000173,678.873181300005,679.3897160000051,None,675.374255679996,None,677.3736355600355,None,679.3897510599869,None,680.888815000013,None,same,LMR,682.4259463000344,683.9384025000036,684.4215855000075,685.9211794000003,686.420520899992,None,682.4216899800057,None,684.4216043600405,None,686.4205822599994,None,687.9200821000268,None,0,['leftCL'],688.9198216000223,None,688.9198216000223,None,688.9198216000223,None,688.9198216000223,None,688.9198216000223,None,-0.1103515625,-0.3466796875,1,0,0,0.46706100000301376,leftCL,0.016334459942299873,None,689.3868095599988,None,4,,,,,,,,,,,,,,,,,,,,,,,,,,,,,,,,,,,,,,,,,RML,OE1002,2023-10-10_16h57.35.922,exp,2021.1.4,60.117397251454214,
,,,,,,,,4,0,4,0,,,,,,,690.032532799989,None,,images/OBJ_102.png,images/OBJ_86.png,images/OBJ_15.png,691.5807932000025,693.0856824000366,693.5689201999921,695.0679811000009,695.5678536000196,None,691.5862387399887,None,693.5684474600072,None,695.5683845599939,None,697.0678757000132,None,same,LMR,698.6120093000354,700.117004300002,700.6001800000085,702.0992771000019,702.5991181000136,None,698.6173648400348,None,700.6002207600337,None,702.5991551600106,None,704.0990799000137,None,0,['leftCL'],705.098434399988,None,705.098434399988,None,705.098434399988,None,705.098434399988,None,705.098434399988,None,-0.166015625,-0.380859375,1,0,0,0.3332535999943502,leftCL,0.01634106005076319,None,705.4316644600418,None,5,,,,,,,,,,,,,,,,,,,,,,,,,,,,,,,,,,,,,,,,,RML,OE1002,2023-10-10_16h57.35.922,exp,2021.1.4,60.117397251454214,
,,,,,,,,5,0,5,0,,,,,,,706.0828974000178,None,,images/OBJ_97.png,images/OBJ_2.png,images/OBJ_17.png,707.6466380000347,709.1477391000371,709.6475669000065,711.1466811000137,711.6470253000152,None,707.6477588400361,None,709.6471046600433,None,711.6470211599895,None,713.1461328000296,None,same,LMR,714.6932760000345,716.1952438000008,716.695538000029,718.195077500015,718.6949870000244,None,714.6960817400017,None,716.6955666600203,None,718.694825260021,None,720.194537500036,None,0,['leftCL'],721.1937356000417,None,721.1937356000417,None,721.1937356000417,None,721.1937356000417,None,721.1937356000417,None,-0.1845703125,-0.376953125,1,0,0,0.4996965000173077,leftCL,0.0162388599710539,None,721.6936835600005,None,6,,,,,,,,,,,,,,,,,,,,,,,,,,,,,,,,,,,,,,,,,LMR,OE1002,2023-10-10_16h57.35.922,exp,2021.1.4,60.117397251454214,
,,,,,,,,6,0,6,0,,,,,,,722.3423668000032,None,,images/OBJ_114.png,images/OBJ_123.png,images/OBJ_94.png,723.8915074000251,725.3930061000283,725.8928714999929,727.3923993000062,727.8921370999888,None,723.8935177399893,None,725.8928856599902,None,727.8918416600151,None,729.3913534000167,None,same,LMR,730.9399464000016,732.440932700003,732.9403114000452,734.439897800039,734.9397344000172,None,730.9413778399816,None,732.940813960036,None,734.9397982600436,None,736.4393176999874,None,0,['leftCL'],737.4390552000259,None,737.4390552000259,None,737.4390552000259,None,737.4390552000259,None,737.4390552000259,None,-0.2294921875,-0.375,1,0,0,0.6497349999845028,leftCL,0.01632496004458517,None,738.0893766599999,None,7,,,,,,,,,,,,,,,,,,,,,,,,,,,,,,,,,,,,,,,,,RML,OE1002,2023-10-10_16h57.35.922,exp,2021.1.4,60.117397251454214,
,,,,,,,,7,0,7,0,,,,,,,738.7326773999957,None,,images/OBJ_4.png,images/OBJ_129.png,images/OBJ_103.png,740.2788512000116,741.7877141000354,742.2709544000099,743.770496800018,744.2703747000196,None,740.288803740032,None,742.2709512599919,None,744.2707540600037,None,745.7699723000405,None,same,LMR,747.309086400026,748.8190308000194,749.3027480000164,750.8018148000119,751.3016554000205,None,747.3194749399903,None,749.3027591599908,None,751.3016920600145,None,752.801700800017,None,0,['leftCL'],753.8014034000225,None,753.8014034000225,None,753.8014034000225,None,753.8014034000225,None,753.8014034000225,None,-0.2099609375,-0.3564453125,1,0,0,0.40009759995155036,leftCL,0.016372860001865774,None,754.2013114599919,None,8,,,,,,,,,,,,,,,,,,,,,,,,,,,,,,,,,,,,,,,,,LMR,OE1002,2023-10-10_16h57.35.922,exp,2021.1.4,60.117397251454214,
,,,,,,,,8,0,8,0,,,,,,,754.8434551000246,None,,images/OBJ_78.png,images/OBJ_59.png,images/OBJ_1.png,756.386147400015,757.89969749999,758.3828785000369,759.8825338000315,760.3824028000236,None,756.3835928800225,None,758.3834314600041,None,760.3824129599903,None,761.8819260000018,None,same,LMR,763.4169148000074,764.9310239999904,765.414734799997,766.9143164000125,767.4136112999986,None,763.4152651800367,None,765.4147600600205,None,767.414122359996,None,768.9132059999974,None,0,['leftCL'],769.912885400001,None,769.912885400001,None,769.912885400001,None,769.912885400001,None,769.912885400001,None,-0.216796875,-0.3798828125,1,0,0,0.5494774999679066,leftCL,0.016375559964217246,None,770.4628158599895,None,9,,,,,,,,,,,,,,,,,,,,,,,,,,,,,,,,,,,,,,,,,RML,OE1002,2023-10-10_16h57.35.922,exp,2021.1.4,60.117397251454214,
,,,,,,,,9,0,9,0,,,,,,,771.1038443000289,None,,images/OBJ_33.png,images/OBJ_202.png,images/OBJ_40.png,772.6541268000146,774.1616689999937,774.6448933000211,776.1449111000402,776.6447654000367,None,772.6626838400028,None,774.644875260006,None,776.6447679600038,None,778.1438618000248,None,same,LMR,779.6856017000391,781.1929685000214,781.6761663000216,783.1761942000012,783.6760609000339,None,779.6938969400129,None,781.6761749600352,None,783.6760757600365,None,785.175132400007,None,0,['leftCL'],786.1748490000027,None,786.1748490000027,None,786.1748490000027,None,786.1748490000027,None,786.1748490000027,None,-0.24609375,-0.3173828125,1,0,0,0.7831399000133388,leftCL,0.016375459963455796,None,786.9579950600106,None,10,,,,,,,,,,,,,,,,,,,,,,,,,,,,,,,,,,,,,,,,,MLR,OE1002,2023-10-10_16h57.35.922,exp,2021.1.4,60.117397251454214,
,,,,,,,,10,0,10,0,,,,,,,787.6027574000182,None,,images/OBJ_158.png,images/OBJ_38.png,images/OBJ_83.png,789.1517648000154,790.6573950999882,791.1405801000074,792.6401225000154,793.1395330000087,None,789.157898640004,None,791.1405765599862,None,793.1400496599905,None,794.6391995000304,None,diff,LMR,796.1830087000271,797.6882077000337,798.1718404000276,799.6714116000221,800.1707764000166,None,796.1890838400344,None,798.1713926600002,None,800.170819059998,None,801.6708589000045,None,1,['rightCL'],802.6700668000267,None,802.6700668000267,None,802.6700668000267,None,802.6700668000267,None,802.6700668000267,None,0.119140625,-0.34765625,1,0,0,0.3496006999630481,rightCL,0.016374460014048964,None,803.0200933600369,None,11,,,,,,,,,,,,,,,,,,,,,,,,,,,,,,,,,,,,,,,,,LRM,OE1002,2023-10-10_16h57.35.922,exp,2021.1.4,60.117397251454214,
,,,,,,,,11,0,11,0,,,,,,,803.6744363000034,None,,images/OBJ_99.png,images/OBJ_72.png,images/OBJ_191.png,805.2295003000181,806.7360196000081,807.2187580000027,808.7188169000437,809.2186484000413,None,805.2360865400173,None,807.2191029600159,None,809.2186586600088,None,810.7177390000434,None,diff,RLM,812.2602926000254,813.7673198000412,814.2500392000074,815.7496409000014,816.2495898000197,None,812.2677215399802,None,814.250064460031,None,816.2496090599976,None,817.7490230000112,None,1,['rightCL'],818.7487275000312,None,818.7487275000312,None,818.7487275000312,None,818.7487275000312,None,818.7487275000312,None,0.119140625,-0.345703125,1,0,0,0.3328157999785617,rightCL,0.01637665997259319,None,819.0820194600325,None,12,,,,,,,,,,,,,,,,,,,,,,,,,,,,,,,,,,,,,,,,,RML,OE1002,2023-10-10_16h57.35.922,exp,2021.1.4,60.117397251454214,
,,,,,,,,12,0,12,0,,,,,,,819.7255758999963,None,,images/OBJ_199.png,images/OBJ_50.png,images/OBJ_193.png,821.2690956000006,822.7808979999973,823.2476853000117,824.747460899991,825.2640305000241,None,821.2813883400289,None,823.2479125600017,None,825.2640179599927,None,826.7635231000022,None,same,RLM,828.3191288000089,829.828891400015,830.3125114000286,831.8121061000274,832.3119511000114,None,828.3297402399825,None,830.3125393600145,None,832.3119846600399,None,833.8110351000214,None,0,['leftCL'],834.8112060000421,None,834.8112060000421,None,834.8112060000421,None,834.8112060000421,None,834.8112060000421,None,-0.1220703125,-0.3720703125,1,0,0,0.41663019999396056,leftCL,0.016375860024709255,None,835.22780776,None,13,,,,,,,,,,,,,,,,,,,,,,,,,,,,,,,,,,,,,,,,,LRM,OE1002,2023-10-10_16h57.35.922,exp,2021.1.4,60.117397251454214,
,,,,,,,,13,0,13,0,,,,,,,835.8760017000022,None,,images/OBJ_146.png,images/OBJ_126.png,images/OBJ_67.png,837.4174919000361,838.926673900045,839.4098766000243,840.9094860000187,841.4093323000125,None,837.4272160400054,None,839.4099026599957,None,841.4088336600049,None,842.9083913000068,None,diff,RLM,844.4473210000433,845.9579531000345,846.4412084000069,847.9407121000113,848.440622700029,None,844.4579305400024,None,846.441206860001,None,848.4405819600157,None,849.9401239000144,None,1,['rightCL'],850.9394212000188,None,850.9394212000188,None,850.9394212000188,None,850.9394212000188,None,850.9394212000188,None,0.1162109375,-0.3564453125,1,0,0,0.5665313000208698,rightCL,0.01632906007580459,None,851.5058929599996,None,14,,,,,,,,,,,,,,,,,,,,,,,,,,,,,,,,,,,,,,,,,RML,OE1002,2023-10-10_16h57.35.922,exp,2021.1.4,60.117397251454214,
,,,,,,,,14,0,14,0,,,,,,,852.1555318000028,None,,images/OBJ_48.png,images/OBJ_141.png,images/OBJ_13.png,853.6999982999987,855.2047710000188,855.6880130000063,857.1880343999946,857.6879241000279,None,853.7053346400265,None,855.6880498600018,None,857.6879012600344,None,859.1874593000393,None,same,RLM,860.7314640000113,862.2360840000329,862.7193145999918,864.2193408000167,864.7191861000028,None,860.7370104400092,None,862.7192960600311,None,864.719192860002,None,866.218273000035,None,0,['leftCL'],867.2180020000087,None,867.2180020000087,None,867.2180020000087,None,867.2180020000087,None,867.2180020000087,None,-0.2646484375,-0.373046875,1,0,0,0.31613089999882504,leftCL,0.016334660002030432,None,867.5345667599992,None,15,,,,,,,,,,,,,,,,,,,,,,,,,,,,,,,,,,,,,,,,,RML,OE1002,2023-10-10_16h57.35.922,exp,2021.1.4,60.117397251454214,
,,,,,,,,15,0,15,0,,,,,,,868.1776242000051,None,,images/OBJ_197.png,images/OBJ_95.png,images/OBJ_9.png,869.7296296000131,871.2339578000247,871.7166689000442,873.2162703000358,873.7161109000444,None,869.7339448400074,None,871.7166792600125,None,873.716110359988,None,875.2161590000032,None,same,RLM,876.7780894000316,878.2819187000277,878.7650930000236,880.2646584000322,880.7640354000032,None,876.7823156399885,None,878.7651106599893,None,880.7641020599928,None,882.2636365999933,None,0,['leftCL'],883.2636084000114,None,883.2636084000114,None,883.2636084000114,None,883.2636084000114,None,883.2636084000114,None,-0.263671875,-0.3701171875,1,0,0,0.4661534000188112,leftCL,0.016365560004487634,None,883.7299101600016,None,16,,,,,,,,,,,,,,,,,,,,,,,,,,,,,,,,,,,,,,,,,LMR,OE1002,2023-10-10_16h57.35.922,exp,2021.1.4,60.117397251454214,
,,,,,,,,16,0,16,0,,,,,,,884.3768518000143,None,,images/OBJ_89.png,images/OBJ_6.png,images/OBJ_70.png,885.9169992000097,887.4292536000139,887.9124390000361,889.411997999996,889.9118749999907,None,885.9126167800104,None,887.9124559599965,None,889.9114271600207,None,891.4114201000193,None,same,RLM,892.9457702999935,894.4605184000102,894.9437273000367,896.4428328000358,896.9431519000209,None,892.9438684800233,None,894.9437609600078,None,896.9431654600136,None,898.4422769999946,None,0,['leftCL'],899.4419840000337,None,899.4419840000337,None,899.4419840000337,None,899.4419840000337,None,899.4419840000337,None,-0.2451171875,-0.359375,1,0,0,0.29947080003330484,leftCL,0.016360759967938066,None,899.7419285600132,None,17,,,,,,,,,,,,,,,,,,,,,,,,,,,,,,,,,,,,,,,,,RLM,OE1002,2023-10-10_16h57.35.922,exp,2021.1.4,60.117397251454214,
,,,,,,,,17,0,17,0,,,,,,,900.3873661000398,None,,images/OBJ_65.png,images/OBJ_96.png,images/OBJ_64.png,901.9302393000107,903.441261400003,903.9239947000169,905.4240662000375,905.9234173000441,None,901.9416876400122,None,903.9239914599981,None,905.9239401600149,None,907.4234505000059,None,same,RLM,908.9615141000249,910.4720940000261,910.955761499994,912.4551675000112,912.9551921000239,None,908.9730387400253,None,910.9553003600391,None,912.9551870599913,None,914.4542241000454,None,0,['leftCL'],915.4544492000132,None,915.4544492000132,None,915.4544492000132,None,915.4544492000132,None,915.4544492000132,None,-0.2451171875,-0.359375,1,0,0,0.40001119999215007,leftCL,0.016374160011764616,None,915.854418060038,None,18,,,,,,,,,,,,,,,,,,,,,,,,,,,,,,,,,,,,,,,,,LRM,OE1002,2023-10-10_16h57.35.922,exp,2021.1.4,60.117397251454214,
,,,,,,,,18,0,18,0,,,,,,,916.5082373000332,None,,images/OBJ_51.png,images/OBJ_21.png,images/OBJ_24.png,918.0636264000204,919.5699146999978,920.053127799998,921.5526959000272,922.0525162999984,None,918.0703691399889,None,920.0531398600375,None,922.052535760036,None,923.5516553000198,None,diff,LRM,925.0945723000332,926.6012571000028,927.0839162000339,928.583973700006,929.0833228999982,None,925.1016227400163,None,927.0839996600349,None,929.083858260006,None,930.5829118000111,None,1,['rightCL'],931.5831091,None,931.5831091,None,931.5831091,None,931.5831091,None,931.5831091,None,0.1171875,-0.3662109375,1,0,0,0.7665554999839514,rightCL,0.016381860012188554,None,932.3491220599914,None,19,,,,,,,,,,,,,,,,,,,,,,,,,,,,,,,,,,,,,,,,,RML,OE1002,2023-10-10_16h57.35.922,exp,2021.1.4,60.117397251454214,
,,,,,,,,19,0,19,0,,,,,,,933.0004893000005,None,,images/OBJ_25.png,images/OBJ_135.png,images/OBJ_196.png,934.5627730000415,936.0651384000084,936.5644903000211,938.0640630000271,938.5643753000186,None,934.5651704399846,None,936.5644987600332,None,938.5644157600415,None,940.0638976999908,None,same,LRM,941.6099564000033,943.1130542000174,943.5962822000147,945.0958191000391,945.611864400038,None,941.6134742400376,None,943.596163259988,None,945.6119011600327,None,947.1114812000305,None,0,['leftCL'],948.1112732000183,None,948.1112732000183,None,948.1112732000183,None,948.1112732000183,None,948.1112732000183,None,-0.23828125,-0.3876953125,1,0,0,0.35005459998501465,leftCL,0.016258560004644096,None,948.4615791600023,None,20,,,,,,,,,,,,,,,,,,,,,,,,,,,,,,,,,,,,,,,,,LMR,OE1002,2023-10-10_16h57.35.922,exp,2021.1.4,60.117397251454214,
,,,,,,,,20,0,20,0,,,,,,,949.1113602000405,None,,images/OBJ_110.png,images/OBJ_151.png,images/OBJ_79.png,950.6498872000375,952.1599571999977,952.6431477000006,954.143184799992,954.6430280000204,None,950.6609763399814,None,952.6431415600179,None,954.6430708600034,None,956.1426295000128,None,same,LRM,957.680673099996,959.1917432000046,959.6749091999955,961.1740185000235,961.6744044999941,None,957.69210014001,None,959.6748049600225,None,961.6743560600386,None,963.1739058000385,None,0,['leftCL'],964.1731940000318,None,964.1731940000318,None,964.1731940000318,None,964.1731940000318,None,964.1731940000318,None,-0.2265625,-0.388671875,1,0,0,0.3164775999612175,leftCL,0.016290260013192892,None,964.4897912600369,None,21,,,,,,,,,,,,,,,,,,,,,,,,,,,,,,,,,,,,,,,,,RML,OE1002,2023-10-10_16h57.35.922,exp,2021.1.4,60.117397251454214,
,,,,,,,,21,0,21,0,,,,,,,965.1312103000237,None,,images/OBJ_7.png,images/OBJ_154.png,images/OBJ_107.png,966.6816045999876,968.1886335000163,968.6718628000235,970.1718789000297,970.6712510000216,None,966.6896605400019,None,968.6718201599957,None,970.6712661600264,None,972.1712094999966,None,same,LRM,973.7127465000376,975.2199409999885,975.7031426000176,977.202671200037,977.7025524000055,None,973.7208343400038,None,975.7031582600263,None,977.7030406600039,None,979.2025863000308,None,0,['leftCL'],980.2022892000386,None,980.2022892000386,None,980.2022892000386,None,980.2022892000386,None,980.2022892000386,None,-0.2255859375,-0.3837890625,1,0,0,0.4327101999660954,leftCL,0.01633055997081101,None,980.6350489600387,None,22,,,,,,,,,,,,,,,,,,,,,,,,,,,,,,,,,,,,,,,,,RLM,OE1002,2023-10-10_16h57.35.922,exp,2021.1.4,60.117397251454214,
,,,,,,,,22,0,22,0,,,,,,,981.290447700012,None,,images/OBJ_31.png,images/OBJ_188.png,images/OBJ_53.png,982.8400937000406,984.350625800027,984.8157755000284,986.3166789000388,986.8332297000452,None,982.8516751400078,None,984.8179917600297,None,986.8337112599926,None,988.3327881000005,None,diff,RML,989.8710246999981,991.382370700012,991.86508399999,993.3651346000261,993.8645242000348,None,989.8825540400343,None,991.8655790600402,None,993.8645804600034,None,995.3640937000164,None,1,['rightCL'],996.3638639000128,None,996.3638639000128,None,996.3638639000128,None,996.3638639000128,None,996.3638639000128,None,0.1474609375,-0.3603515625,1,0,0,0.3336962000466883,rightCL,0.016310959996189922,None,996.6975767600176,None,23,,,,,,,,,,,,,,,,,,,,,,,,,,,,,,,,,,,,,,,,,LMR,OE1002,2023-10-10_16h57.35.922,exp,2021.1.4,60.117397251454214,
,,,,,,,,23,0,23,0,,,,,,,997.3419419000275,None,,images/OBJ_77.png,images/OBJ_43.png,images/OBJ_84.png,998.8961737999925,1000.3964398000389,1000.8957869000151,1002.3958385000005,1002.8956984000397,None,998.8969532400137,None,1000.8958485600248,None,1002.8957186600252,None,1004.3948176000267,None,same,RML,1005.9437422000337,1007.4443912000279,1007.9442491999944,1009.4433300000383,1009.9436317000072,None,1005.944800040021,None,1007.9442990600306,None,1009.9436593599909,None,1011.4427896999987,None,0,['leftCL'],1012.4424628000124,None,1012.4424628000124,None,1012.4424628000124,None,1012.4424628000124,None,1012.4424628000124,None,-0.158203125,-0.359375,1,0,0,0.3335451999446377,leftCL,0.016278160037472844,None,1012.7762079600303,None,24,,,,,,,,,,,,,,,,,,,,,,,,,,,,,,,,,,,,,,,,,LMR,OE1002,2023-10-10_16h57.35.922,exp,2021.1.4,60.117397251454214,
,,,,,,,,24,0,24,0,,,,,,,1013.4233103000442,None,,images/OBJ_194.png,images/OBJ_178.png,images/OBJ_155.png,1014.9691564000095,1016.4745907000033,1016.9577693000319,1018.4578264000011,1018.9576893000049,None,1014.9751825399929,None,1016.9582971600408,None,1018.957242260041,None,1020.4572516999906,None,same,RML,1022.0007550000446,1023.5063414000324,1023.9890966000385,1025.4891663999879,1025.988523200038,None,1022.0067851400003,None,1023.9891626600235,None,1025.9889938600186,None,1027.4884783000452,None,0,['leftCL'],1028.4878338000271,None,1028.4878338000271,None,1028.4878338000271,None,1028.4878338000271,None,1028.4878338000271,None,-0.158203125,-0.359375,1,0,0,0.3668887999956496,leftCL,0.016253060020972043,None,1028.854897160019,None,25,,,,,,,,,,,,,,,,,,,,,,,,,,,,,,,,,,,,,,,,,RML,OE1002,2023-10-10_16h57.35.922,exp,2021.1.4,60.117397251454214,
,,,,,,,,,,,,,,,,,,,,,,,,,,,,,,,,,,,,,,,,,,,,,,,,,,,,,,,,,,,,,,,,,,,,,,,,,,,,,25,1029.3624457000406,None,None,None,q,983.9399678000482,None,None,,,,,,,,,,,,,,,,,,,,,,,,,,,,,,,,,,OE1002,2023-10-10_16h57.35.922,exp,2021.1.4,60.117397251454214,
,,,,0,0,0,0,,,,,,,,,,,,,,,,,,,,,,,,,,,,,,,,,,,,,,,,,,,,,,,,,,,,,,,,,,,,,,,,,,,,1076.4572746599965,None,,,,,,,,,,old,1071.398804299999,None,1071.396630379674,None,1072.9082884000381,None,1,1073.9079386999947,None,1074.891320900002,None,1074.891320900002,None,1074.891320900002,None,1074.891320900002,None,1074.891320900002,None,1074.891320900002,None,0.005859375,-0.08203125,1,0,0,second_middle,1.0154730600188486,None,,,,OE1002,2023-10-10_16h57.35.922,exp,2021.1.4,60.117397251454214,
,,,,1,0,1,0,,,,,,,,,,,,,,,,,,,,,,,,,,,,,,,,,,,,,,,,,,,,,,,,,,,,,,,,,,,,,,,,,,,,1080.9892794600396,None,,,,,,,,,,old,1077.1702820000355,None,1077.1744674399727,None,1078.6736977000255,None,2,1079.6730309000122,None,1080.6393440000247,None,1080.6393440000247,None,1080.6393440000247,None,1080.6393440000247,None,1080.6393440000247,None,1080.6393440000247,None,0.0068359375,-0.2744140625,1,0,0,third_right,0.9990767600247636,None,,,,OE1002,2023-10-10_16h57.35.922,exp,2021.1.4,60.117397251454214,
,,,,2,0,2,0,,,,,,,,,,,,,,,,,,,,,,,,,,,,,,,,,,,,,,,,,,,,,,,,,,,,,,,,,,,,,,,,,,,,1085.6379121600125,None,,,,,,,,,,old,1081.6824616999947,None,1081.689331679995,None,1083.1885825000354,None,3,1084.1887451999937,None,1085.1551278000115,None,1085.1551278000115,None,1085.1551278000115,None,1085.1551278000115,None,1085.1551278000115,None,1085.1551278000115,None,0.0068359375,-0.2744140625,1,0,0,third_right,0.9991630599834025,None,,,,OE1002,2023-10-10_16h57.35.922,exp,2021.1.4,60.117397251454214,
,,,,3,0,3,0,,,,,,,,,,,,,,,,,,,,,,,,,,,,,,,,,,,,,,,,,,,,,,,,,,,,,,,,,,,,,,,,,,,,1090.2037044599942,None,,,,,,,,,,old,1086.3269807000179,None,1086.3384515800105,None,1087.8372098000254,None,4,1088.8369127000333,None,1089.8199896000442,None,1089.8199896000442,None,1089.8199896000442,None,1089.8199896000442,None,1089.8199896000442,None,1089.8199896000442,None,-0.0234375,0.0908203125,1,0,0,first_left,1.015334760013502,None,,,,OE1002,2023-10-10_16h57.35.922,exp,2021.1.4,60.117397251454214,
,,,,4,0,4,0,,,,,,,,,,,,,,,,,,,,,,,,,,,,,,,,,,,,,,,,,,,,,,,,,,,,,,,,,,,,,,,,,,,,1094.6524119600012,None,,,,,,,,,,old,1090.8903376000235,None,1090.8867149199823,None,1092.4030499000219,None,5,1093.4027903000242,None,1094.3686255000066,None,1094.3686255000066,None,1094.3686255000066,None,1094.3686255000066,None,1094.3686255000066,None,1094.3686255000066,None,-0.0068359375,0.0966796875,1,0,0,first_left,0.9991201600059867,None,,,,OE1002,2023-10-10_16h57.35.922,exp,2021.1.4,60.117397251454214,
,,,,5,0,5,0,,,,,,,,,,,,,,,,,,,,,,,,,,,,,,,,,,,,,,,,,,,,,,,,,,,,,,,,,,,,,,,,,,,,1099.1677918599976,None,,,,,,,,,,old,1095.3333607999957,None,1095.3353197200222,None,1096.8349786000326,None,6,1097.8346915000002,None,1098.8006689000176,None,1098.8006689000176,None,1098.8006689000176,None,1098.8006689000176,None,1098.8006689000176,None,1098.8006689000176,None,-0.06640625,-0.044921875,1,0,0,second_middle,0.9990778599749319,None,,,,OE1002,2023-10-10_16h57.35.922,exp,2021.1.4,60.117397251454214,
,,,,6,0,6,0,,,,,,,,,,,,,,,,,,,,,,,,,,,,,,,,,,,,,,,,,,,,,,,,,,,,,,,,,,,,,,,,,,,,1103.7326336600177,None,,,,,,,,,,old,1099.8562541000429,None,1099.8673514799855,None,1101.3666271000402,None,7,1102.3663615999976,None,1103.3327239000355,None,1103.3327239000355,None,1103.3327239000355,None,1103.3327239000355,None,1103.3327239000355,None,1103.3327239000355,None,-0.060546875,-0.05859375,1,0,0,second_middle,0.999205459957011,None,,,,OE1002,2023-10-10_16h57.35.922,exp,2021.1.4,60.117397251454214,
,,,,7,0,7,0,,,,,,,,,,,,,,,,,,,,,,,,,,,,,,,,,,,,,,,,,,,,,,,,,,,,,,,,,,,,,,,,,,,,1108.331302459986,None,,,,,,,,,,old,1104.4161040000035,None,1104.4165366199913,None,1105.915321700042,None,8,1106.9150305000367,None,1107.8813642000314,None,1107.8813642000314,None,1107.8813642000314,None,1107.8813642000314,None,1107.8813642000314,None,1107.8813642000314,None,-0.0107421875,-0.2421875,1,0,0,third_right,0.9991584600065835,None,,,,OE1002,2023-10-10_16h57.35.922,exp,2021.1.4,60.117397251454214,
