EncodingTrials.thisRepN,EncodingTrials.thisTrialN,EncodingTrials.thisN,EncodingTrials.thisIndex,RetrievalTrials.thisRepN,RetrievalTrials.thisTrialN,RetrievalTrials.thisN,RetrievalTrials.thisIndex,EncodingBlock2.thisRepN,EncodingBlock2.thisTrialN,EncodingBlock2.thisN,EncodingBlock2.thisIndex,RetrievalBlock2.thisRepN,RetrievalBlock2.thisTrialN,RetrievalBlock2.thisN,RetrievalBlock2.thisIndex,Instructions.started,Instructions.stopped,fixation.started,fixation.stopped,trialOrder,triplet1,triplet2,triplet3,Triplet1.started,Triplet1.stopped,Triplet2.started,Triplet2.stopped,Triplet3.started,Triplet3.stopped,sound_pop.started,sound_pop.stopped,sound_pop2.started,sound_pop2.stopped,sound_pop3.started,sound_pop3.stopped,Mask.started,Mask.stopped,encodingType,nextTrial,img1.started,img1.stopped,img2.started,img2.stopped,img3.started,img3.stopped,sound_pop4.started,sound_pop4.stopped,sound_pop5.started,sound_pop5.stopped,sound_pop6.started,sound_pop6.stopped,text_2.started,text_2.stopped,methodCheck,Method Clicked,text.started,text.stopped,sameText.started,sameText.stopped,diffText.started,diffText.stopped,leftCL.started,leftCL.stopped,rightCL.started,rightCL.stopped,MethodMouse.x,MethodMouse.y,MethodMouse.leftButton,MethodMouse.midButton,MethodMouse.rightButton,MethodMouse.time,MethodMouse.clicked_name,MethodMouse.started,MethodMouse.stopped,clickedSound.started,clickedSound.stopped,encodingTrials,BlockBreak.started,BlockBreak.stopped,text_4.started,text_4.stopped,start2.keys,start2.rt,start2.started,start2.stopped,retType,retIMG.started,retIMG.stopped,sound_pop7.started,sound_pop7.stopped,question_text.started,question_text.stopped,retTrials,decisionQ_2.started,decisionQ_2.stopped,first_left.started,first_left.stopped,second_middle.started,second_middle.stopped,third_right.started,third_right.stopped,First.started,First.stopped,Second.started,Second.stopped,Third.started,Third.stopped,Order_Position_Response.x,Order_Position_Response.y,Order_Position_Response.leftButton,Order_Position_Response.midButton,Order_Position_Response.rightButton,Order_Position_Response.clicked_name,Order_Position_Response.started,Order_Position_Response.stopped,retrievalTrials,retIMG,Trial_Order,participant,date,expName,psychopyVersion,frameRate,
0,0,0,0,,,,,,,,,,,,,154.98316459998023,None,164.3827348999912,None,RML,images/OBJ_126.png,images/OBJ_173.png,images/OBJ_184.png,166.0245552000124,167.53367510001408,168.01686470001005,169.5164427999989,170.01627789996564,None,166.03439829993295,None,168.01735615998624,None,170.01678855997162,None,171.5159233000013,None,same,None,173.14739160001045,174.64877420000266,175.14862439996796,176.648156500014,177.14811040001223,None,173.14844413997488,None,175.14859736001236,None,177.14804015996052,None,178.6471537000034,None,1,['leftCL'],179.64687060000142,None,179.64687060000142,None,179.64687060000142,None,179.64687060000142,None,179.64687060000142,None,-0.142578125,-0.2412109375,1,0,0,2.6626044000149705,leftCL,0.012997859972529113,None,182.31272265996668,None,,,,,,,,,,,,,,,,,,,,,,,,,,,,,,,,,,,,,,,,,,,OE1000,2023-10-10_09h47.30.952,exp,2021.1.4,59.98541154855925,
1,0,1,0,,,,,,,,,,,,,,,182.9600683999597,None,LMR,images/OBJ_139.png,images/OBJ_84.png,images/OBJ_24.png,184.51474109996343,186.0288088999805,186.5114969999995,188.0115608999622,188.5114255999797,None,184.51248713998356,None,186.51195045997738,None,188.51139666000964,None,190.01050109998323,None,diff,RLM,191.55689359997632,193.05960969999433,193.55945820000488,195.0593901000102,195.55937099998118,None,191.55982263999758,None,193.55942315998837,None,195.5593195599562,None,197.05845979996957,None,1,['rightCL'],198.05863139999565,None,198.05863139999565,None,198.05863139999565,None,198.05863139999565,None,198.05863139999565,None,0.140625,-0.3740234375,1,0,0,1.0160525999963284,rightCL,0.016331360035110265,None,199.07448775997037,None,,,,,,,,,,,,,,,,,,,,,,,,,,,,,,,,,,,,,,,,,,,OE1000,2023-10-10_09h47.30.952,exp,2021.1.4,59.98541154855925,
2,0,2,0,,,,,,,,,,,,,,,199.72174730000552,None,LMR,images/OBJ_133.png,images/OBJ_15.png,images/OBJ_151.png,201.2773167999694,202.79058599995915,203.2737797999871,204.77332669997122,205.27320900000632,None,201.27424893996212,None,203.27372795995907,None,205.27318035998033,None,206.77229280001484,None,diff,RLM,208.32043379999232,209.82188689999748,210.32125509995967,211.82083159999456,212.32071319996612,None,208.3220818399801,None,210.3212753599568,None,212.32114065997885,None,213.82021809997968,None,1,['rightCL'],214.82033019996015,None,214.82033019996015,None,214.82033019996015,None,214.82033019996015,None,214.82033019996015,None,0.2041015625,-0.3740234375,1,0,0,0.6831715000444092,rightCL,0.016297460009809583,None,215.50356205995777,None,,,,,,,,,,,,,,,,,,,,,,,,,,,,,,,,,,,,,,,,,,,OE1000,2023-10-10_09h47.30.952,exp,2021.1.4,59.98541154855925,
3,0,3,0,,,,,,,,,,,,,,,216.1531056999811,None,LMR,images/OBJ_200.png,images/OBJ_208.png,images/OBJ_177.png,217.6970258000074,219.202479199972,219.68521689996123,221.1852345999796,221.68459279998206,None,217.70234753997065,None,219.68567956000916,None,221.68511925999192,None,223.18417630001204,None,same,RLM,224.72508219996234,226.23374910000712,226.71695560001535,228.21603149996372,228.71624290000182,None,224.73354243995854,None,226.71695665998269,None,228.71585866000387,None,230.21543679997558,None,0,['rightCL'],231.21520299999975,None,231.21520299999975,None,231.21520299999975,None,231.21520299999975,None,231.21520299999975,None,0.2041015625,-0.3564453125,1,0,0,6.548125499975868,rightCL,0.01632745994720608,None,237.76325275999844,None,,,,,,,,,,,,,,,,,,,,,,,,,,,,,,,,,,,,,,,,,,,OE1000,2023-10-10_09h47.30.952,exp,2021.1.4,59.98541154855925,
4,0,4,0,,,,,,,,,,,,,,,238.4136161999777,None,LMR,images/OBJ_13.png,images/OBJ_79.png,images/OBJ_147.png,239.9524592999951,241.46254979999503,241.9453636999824,243.44541099999333,243.94479489995865,None,239.96256353999487,None,241.94541046000668,None,243.94526025996893,None,245.44436600001063,None,same,RLM,246.98123480001232,248.49347429996124,248.97668650001287,250.47623580001527,250.9760993999662,None,246.9775374799676,None,248.9766350599879,None,250.97659166000668,None,252.47564319998492,None,1,['leftCL'],253.47583299997495,None,253.47583299997495,None,253.47583299997495,None,253.47583299997495,None,253.47583299997495,None,-0.158203125,-0.3486328125,1,0,0,1.2325825999723747,leftCL,0.0163321599829942,None,254.70835286001093,None,,,,,,,,,,,,,,,,,,,,,,,,,,,,,,,,,,,,,,,,,,,OE1000,2023-10-10_09h47.30.952,exp,2021.1.4,59.98541154855925,
5,0,5,0,,,,,,,,,,,,,,,255.35354219999863,None,RML,images/OBJ_96.png,images/OBJ_14.png,images/OBJ_50.png,256.90475909999805,258.4072734999936,258.9070903999964,260.406687300012,260.90652700001374,None,256.90809203995155,None,258.9075679599831,None,260.90651586000456,None,262.4060996999615,None,same,RLM,263.9489470999688,265.45514400000684,265.93840619997354,267.43795779999346,267.9377884999849,None,263.95554713994494,None,265.93885445997,None,267.9381657599646,None,269.43790660001105,None,1,['leftCL'],270.4374799999641,None,270.4374799999641,None,270.4374799999641,None,270.4374799999641,None,270.4374799999641,None,-0.125,-0.361328125,1,0,0,0.7496836999780498,leftCL,0.01632475998485461,None,271.1871531599958,None,,,,,,,,,,,,,,,,,,,,,,,,,,,,,,,,,,,,,,,,,,,OE1000,2023-10-10_09h47.30.952,exp,2021.1.4,59.98541154855925,
6,0,6,0,,,,,,,,,,,,,,,271.8413606999675,None,RML,images/OBJ_142.png,images/OBJ_17.png,images/OBJ_33.png,273.40024039999116,274.90298529999563,275.4027507000137,276.901859399979,277.40177910000784,None,273.4032835399499,None,275.4022718599939,None,277.40221296001107,None,278.90132629999425,None,same,RLM,280.4443293999648,281.95087389997207,282.43408420000924,283.9331486999872,284.4330370000098,None,280.45066593997177,None,282.4340450599615,None,284.43302835996144,None,285.9325712000136,None,1,['leftCL'],286.93231659999583,None,286.93231659999583,None,286.93231659999583,None,286.93231659999583,None,286.93231659999583,None,-0.125,-0.361328125,1,0,0,0.4998229999910109,leftCL,0.016322659968864173,None,287.43210936000685,None,,,,,,,,,,,,,,,,,,,,,,,,,,,,,,,,,,,,,,,,,,,OE1000,2023-10-10_09h47.30.952,exp,2021.1.4,59.98541154855925,
7,0,7,0,,,,,,,,,,,,,,,288.0851563999895,None,RML,images/OBJ_131.png,images/OBJ_7.png,images/OBJ_22.png,289.6406164999935,291.14819879998686,291.6314005999593,293.13097569998354,293.63081419997616,None,289.64806593997633,None,291.63135136000926,None,293.63078245998474,None,295.1303848999669,None,same,RLM,296.68434259999776,298.19569089997094,298.67935910000233,300.17895749997115,300.6783437000122,None,296.6959886399796,None,298.6793278599565,None,300.67873816000645,None,302.1783354000072,None,1,['leftCL'],303.1780721999821,None,303.1780721999821,None,303.1780721999821,None,303.1780721999821,None,303.1780721999821,None,-0.146484375,-0.375,1,0,0,0.38477860001148656,leftCL,0.016293260036036372,None,303.5607830599823,None,,,,,,,,,,,,,,,,,,,,,,,,,,,,,,,,,,,,,,,,,,,OE1000,2023-10-10_09h47.30.952,exp,2021.1.4,59.98541154855925,
8,0,8,0,,,,,,,,,,,,,,,304.20608059997903,None,LMR,images/OBJ_106.png,images/OBJ_40.png,images/OBJ_74.png,305.7563545999583,307.26019489998,307.7600533000077,309.25960300001316,309.75948219996644,None,305.7605529399821,None,307.7600318599783,None,309.7594331599597,None,311.25856599997496,None,same,RLM,312.80114619998494,314.3081749000121,314.79088739998406,316.2908877999871,316.79026109998813,None,312.8079909399617,None,314.7913191599713,None,316.7907152599713,None,318.2903229999938,None,1,['leftCL'],319.28960620000726,None,319.28960620000726,None,319.28960620000726,None,319.28960620000726,None,319.28960620000726,None,-0.1611328125,-0.3583984375,1,0,0,0.4827569999615662,leftCL,0.016326659999322146,None,319.7727263599576,None,,,,,,,,,,,,,,,,,,,,,,,,,,,,,,,,,,,,,,,,,,,OE1000,2023-10-10_09h47.30.952,exp,2021.1.4,59.98541154855925,
9,0,9,0,,,,,,,,,,,,,,,320.4162959000096,None,LRM,images/OBJ_43.png,images/OBJ_10.png,images/OBJ_3.png,321.97525429999223,323.48881979996804,323.971475999977,325.4710294000106,325.9709036999848,None,321.9724860399961,None,323.9714368599874,None,325.9708839599683,None,327.4705059999833,None,same,RLM,329.01673949998803,330.52010859997245,331.0199835000094,332.5189905000152,333.01890059997095,None,329.01987813997545,None,331.01942685997926,None,333.0188273600128,None,334.51843569998164,None,1,['leftCL'],335.51816919998964,None,335.51816919998964,None,335.51816919998964,None,335.51816919998964,None,335.51816919998964,None,-0.14453125,-0.3564453125,1,0,0,1.1164797999663278,leftCL,0.01630395994288847,None,336.6345050599833,None,,,,,,,,,,,,,,,,,,,,,,,,,,,,,,,,,,,,,,,,,,,OE1000,2023-10-10_09h47.30.952,exp,2021.1.4,59.98541154855925,
10,0,10,0,,,,,,,,,,,,,,,337.2733815999818,None,LMR,images/OBJ_57.png,images/OBJ_144.png,images/OBJ_189.png,338.8308401000104,340.3339240999776,340.83325149997836,342.3333399000112,342.8331814999692,None,338.83378943995336,None,340.8337466599827,None,342.8326892599638,None,344.3327838999685,None,same,RLM,345.8914380999631,347.3980912999832,347.8812432999839,349.3812800999731,349.88117830001283,None,345.898350439989,None,347.8814759599685,None,349.8811453600123,None,351.3802376000094,None,1,['leftCL'],352.380435900006,None,352.380435900006,None,352.380435900006,None,352.380435900006,None,352.380435900006,None,-0.2412109375,-0.3125,1,0,0,0.9331303000217304,leftCL,0.016294259985443205,None,353.31350915996006,None,,,,,,,,,,,,,,,,,,,,,,,,,,,,,,,,,,,,,,,,,,,OE1000,2023-10-10_09h47.30.952,exp,2021.1.4,59.98541154855925,
11,0,11,0,,,,,,,,,,,,,,,353.9552700999775,None,RML,images/OBJ_29.png,images/OBJ_100.png,images/OBJ_196.png,355.5122001999989,357.0119119999581,357.5122599999886,359.0116855999804,359.511665900005,None,355.51231043997683,None,357.5122250599728,None,359.51165576000346,None,361.0107938000001,None,same,RLM,362.55560759996297,364.05987900000764,364.5435596999596,366.04311069997493,366.5424817999592,None,362.5601683399523,None,364.54352576000963,None,366.54291925998984,None,368.0425171999959,None,1,['leftCL'],369.04213760001585,None,369.04213760001585,None,369.04213760001585,None,369.04213760001585,None,369.04213760001585,None,-0.203125,-0.3271484375,1,0,0,0.49946990003809333,leftCL,0.01632475998485461,None,369.5416399599693,None,,,,,,,,,,,,,,,,,,,,,,,,,,,,,,,,,,,,,,,,,,,OE1000,2023-10-10_09h47.30.952,exp,2021.1.4,59.98541154855925,
12,0,12,0,,,,,,,,,,,,,,,370.1874828999862,None,RML,images/OBJ_113.png,images/OBJ_70.png,images/OBJ_137.png,371.7353422999731,373.2405226000119,373.724206999992,375.22328659996856,375.7231093000155,None,371.7408740399638,None,373.7241672599979,None,375.7230736599944,None,377.2231801999733,None,same,RLM,378.77745120000327,380.2889525999781,380.7716908999719,382.2712620999664,382.7715707999887,None,378.7886701399926,None,380.77213265997705,None,382.77160325996226,None,384.2706745999749,None,1,['leftCL'],385.2708908999921,None,385.2708908999921,None,385.2708908999921,None,385.2708908999921,None,385.2708908999921,None,-0.1962890625,-0.2763671875,1,0,0,0.45045080001000315,leftCL,0.016293159977067262,None,385.72071256000197,None,,,,,,,,,,,,,,,,,,,,,,,,,,,,,,,,,,,,,,,,,,,OE1000,2023-10-10_09h47.30.952,exp,2021.1.4,59.98541154855925,
13,0,13,0,,,,,,,,,,,,,,,386.368939100008,None,RML,images/OBJ_25.png,images/OBJ_32.png,images/OBJ_175.png,387.91114759998163,389.4196382999653,389.90236459998414,391.40191019995837,391.90177359996596,None,387.9200215399847,None,389.9028154600004,None,391.9022296599636,None,393.40138819999993,None,same,RLM,394.9374320000061,396.4509573999676,396.9341416999814,398.4331923999707,398.93353260000004,None,394.9345800799958,None,396.93410855997934,None,398.93351245998053,None,400.432636499987,None,1,['leftCL'],401.43233749998035,None,401.43233749998035,None,401.43233749998035,None,401.43233749998035,None,401.43233749998035,None,-0.1962890625,-0.2763671875,1,0,0,0.44938340003136545,leftCL,0.016323759977240115,None,401.8821954599756,None,,,,,,,,,,,,,,,,,,,,,,,,,,,,,,,,,,,,,,,,,,,OE1000,2023-10-10_09h47.30.952,exp,2021.1.4,59.98541154855925,
14,0,14,0,,,,,,,,,,,,,,,402.5271318000159,None,MRL,images/OBJ_54.png,images/OBJ_188.png,images/OBJ_161.png,404.08076310000615,405.58109429996694,406.0809455999988,407.5805578000145,408.08092249999754,None,404.08198743996905,None,406.08093075996146,None,408.0804871599597,None,409.5965939000016,None,diff,LRM,411.1422194999759,412.64583100000164,413.14559209998697,414.6451645999914,415.14510109997354,None,411.146438839985,None,413.14560255996764,None,415.1454800599662,None,416.6451118999976,None,1,['rightCL'],417.6448639999726,None,417.6448639999726,None,417.6448639999726,None,417.6448639999726,None,417.6448639999726,None,0.1552734375,-0.396484375,1,0,0,1.0169203000259586,rightCL,0.01631266000913456,None,418.66113485996027,None,,,,,,,,,,,,,,,,,,,,,,,,,,,,,,,,,,,,,,,,,,,OE1000,2023-10-10_09h47.30.952,exp,2021.1.4,59.98541154855925,
15,0,15,0,,,,,,,,,,,,,,,419.3103330999729,None,RML,images/OBJ_121.png,images/OBJ_21.png,images/OBJ_182.png,420.8599004999851,422.35954739997396,422.85989849996986,424.3594716999796,424.8593275999883,None,420.86039873994883,None,422.8599103599612,None,424.85929805995545,None,426.35890479997033,None,same,LRM,427.9209774999763,429.42415759997675,429.92405329999747,431.42376799997874,431.9239457999938,None,427.9244374399655,None,429.92406395997966,None,431.92345155997316,None,433.4230860999669,None,1,['leftCL'],434.42274549999274,None,434.42274549999274,None,434.42274549999274,None,434.42274549999274,None,434.42274549999274,None,-0.1552734375,-0.35546875,1,0,0,0.36658449994865805,leftCL,0.016295859939418733,None,434.7893230599642,None,,,,,,,,,,,,,,,,,,,,,,,,,,,,,,,,,,,,,,,,,,,OE1000,2023-10-10_09h47.30.952,exp,2021.1.4,59.98541154855925,
16,0,16,0,,,,,,,,,,,,,,,435.43764919997193,None,LMR,images/OBJ_99.png,images/OBJ_136.png,images/OBJ_47.png,436.98877369996626,438.48868989996845,438.9880903000012,440.48811450001085,440.9874703999958,None,436.9885700399987,None,438.98803536000776,None,440.9874417599698,None,442.48756189999403,None,same,LRM,444.049951199966,445.5527918000007,446.0532178999856,447.5527466000058,448.05212569999276,None,444.0535457399906,None,446.0531811599561,None,448.052501059958,None,449.55214980000164,None,1,['leftCL'],450.55189209996024,None,450.55189209996024,None,450.55189209996024,None,450.55189209996024,None,450.55189209996024,None,-0.130859375,-0.337890625,1,0,0,0.3833030000096187,leftCL,0.016293959983158857,None,450.9346279599762,None,,,,,,,,,,,,,,,,,,,,,,,,,,,,,,,,,,,,,,,,,,,OE1000,2023-10-10_09h47.30.952,exp,2021.1.4,59.98541154855925,
17,0,17,0,,,,,,,,,,,,,,,451.5804188000038,None,LMR,images/OBJ_2.png,images/OBJ_202.png,images/OBJ_72.png,453.12538539996604,454.6335260999622,455.1167221000069,456.6167923999601,457.1161323999986,None,453.13390083997507,None,455.11716725997974,None,457.1165805599943,None,458.6162028000108,None,same,LRM,460.1540518999682,461.66529749997426,462.1480537999887,463.6475746000069,464.14791469997726,None,460.1655360399978,None,462.14803375996996,None,464.1478041599679,None,465.64700870000524,None,1,['leftCL'],466.64672049996443,None,466.64672049996443,None,466.64672049996443,None,466.64672049996443,None,466.64672049996443,None,-0.1875,-0.3662109375,1,0,0,0.39996870001778007,leftCL,0.016321160015650094,None,467.0465868599771,None,,,,,,,,,,,,,,,,,,,,,,,,,,,,,,,,,,,,,,,,,,,OE1000,2023-10-10_09h47.30.952,exp,2021.1.4,59.98541154855925,
18,0,18,0,,,,,,,,,,,,,,,467.68850240000756,None,LMR,images/OBJ_19.png,images/OBJ_46.png,images/OBJ_204.png,469.24736529996153,470.7626539999619,471.24588070000755,472.7453915000078,473.2453043999849,None,469.2458977399743,None,471.2453444599581,None,473.2447533599974,None,474.7444037999958,None,diff,RML,476.29003279999597,477.7939301999868,478.29380579997087,479.7933559999801,480.2932226000121,None,476.29364293996474,None,478.29329775996155,None,480.29317406000916,None,481.79230500000995,None,1,['rightCL'],482.79204390000086,None,482.79204390000086,None,482.79204390000086,None,482.79204390000086,None,482.79204390000086,None,0.11328125,-0.3603515625,1,0,0,0.5328093999996781,rightCL,0.01629615994170308,None,483.325238959986,None,,,,,,,,,,,,,,,,,,,,,,,,,,,,,,,,,,,,,,,,,,,OE1000,2023-10-10_09h47.30.952,exp,2021.1.4,59.98541154855925,
19,0,19,0,,,,,,,,,,,,,,,483.97951749997446,None,RML,images/OBJ_153.png,images/OBJ_178.png,images/OBJ_141.png,485.5357368999976,487.0407673000009,487.52401049999753,489.0240414,489.52337159996387,None,485.5411100399447,None,487.52443965996497,None,489.5234163599729,None,491.0229621999897,None,same,RML,492.5641884999932,494.0725729999831,494.55575639999006,496.05483689997345,496.55467909999425,None,492.5728486399981,None,494.5557022600027,None,496.55517435999934,None,498.0542842000141,None,1,['leftCL'],499.05400229996303,None,499.05400229996303,None,499.05400229996303,None,499.05400229996303,None,499.05400229996303,None,-0.2451171875,-0.3076171875,1,0,0,0.4003692999831401,leftCL,0.016318259993568063,None,499.45431995997785,None,,,,,,,,,,,,,,,,,,,,,,,,,,,,,,,,,,,,,,,,,,,OE1000,2023-10-10_09h47.30.952,exp,2021.1.4,59.98541154855925,
20,0,20,0,,,,,,,,,,,,,,,500.1008547999663,None,RML,images/OBJ_164.png,images/OBJ_110.png,images/OBJ_138.png,501.6403527999646,503.1532437999849,503.635994799959,505.1354876999976,505.63584130001254,None,501.6369352799549,None,503.6364232599793,None,505.6358302600041,None,507.1349249999621,None,same,RML,508.666661700001,510.16785759996856,510.6672599000158,512.1673048000084,512.6671589000034,None,508.6681123799819,None,510.6671930599899,None,512.6669852599792,None,514.1662043000106,None,1,['leftCL'],515.165930499963,None,515.165930499963,None,515.165930499963,None,515.165930499963,None,515.165930499963,None,-0.232421875,-0.3759765625,1,0,0,0.5332555000204593,leftCL,0.01633205998223275,None,515.6991185600112,None,,,,,,,,,,,,,,,,,,,,,,,,,,,,,,,,,,,,,,,,,,,OE1000,2023-10-10_09h47.30.952,exp,2021.1.4,59.98541154855925,
21,0,21,0,,,,,,,,,,,,,,,516.3426558999927,None,RML,images/OBJ_5.png,images/OBJ_187.png,images/OBJ_63.png,517.8860056999838,519.39804369997,519.8812039999757,521.3812837000005,521.8806675999658,None,517.8983747399994,None,519.8816750599711,None,521.8810821599967,None,523.3802155999583,None,same,RML,524.9127284999704,526.4126599999727,526.9129886999726,528.4120815999922,528.9119431999861,None,524.912896479963,None,526.9130070599552,None,528.9119128600054,None,530.4115275999648,None,1,['leftCL'],531.4112042000052,None,531.4112042000052,None,531.4112042000052,None,531.4112042000052,None,531.4112042000052,None,-0.23828125,-0.3876953125,1,0,0,0.49987269996199757,leftCL,0.01629636000143364,None,531.9110428599582,None,,,,,,,,,,,,,,,,,,,,,,,,,,,,,,,,,,,,,,,,,,,OE1000,2023-10-10_09h47.30.952,exp,2021.1.4,59.98541154855925,
22,0,22,0,,,,,,,,,,,,,,,532.55403140001,None,RML,images/OBJ_36.png,images/OBJ_172.png,images/OBJ_130.png,534.1008883999893,535.6099915999803,536.0936547999736,537.5927307999809,538.0925996999722,None,534.1108004399808,None,536.0935078599781,None,538.0930546599615,None,539.5921923000133,None,same,RML,541.1285037999623,542.6412945999764,543.1244362000143,544.6245331999962,545.1243648999953,None,541.1253709799668,None,543.1249023599725,None,545.1243664599664,None,546.6234452999779,None,1,['leftCL'],547.6231796999928,None,547.6231796999928,None,547.6231796999928,None,547.6231796999928,None,547.6231796999928,None,-0.193359375,-0.375,1,0,0,0.3994384999969043,leftCL,0.016294659988489002,None,548.0230597599933,None,,,,,,,,,,,,,,,,,,,,,,,,,,,,,,,,,,,,,,,,,,,OE1000,2023-10-10_09h47.30.952,exp,2021.1.4,59.98541154855925,
23,0,23,0,,,,,,,,,,,,,,,548.6743938999716,None,RML,images/OBJ_103.png,images/OBJ_48.png,images/OBJ_73.png,550.2300230999826,551.7386355999624,552.2217926000012,553.7213477999903,554.221223999979,None,550.2389683399466,None,552.2217709599703,None,554.2211922599876,None,555.7212905999622,None,same,RML,557.275103699998,558.7865894999704,559.2702569999965,560.7693441999727,561.2691526999697,None,557.2872997399769,None,559.2697230599646,None,561.269126459962,None,562.768794499978,None,1,['leftCL'],563.7684953999706,None,563.7684953999706,None,563.7684953999706,None,563.7684953999706,None,563.7684953999706,None,-0.1865234375,-0.3359375,1,0,0,0.5995361000532284,leftCL,0.016291260020807385,None,564.3683122599672,None,,,,,,,,,,,,,,,,,,,,,,,,,,,,,,,,,,,,,,,,,,,OE1000,2023-10-10_09h47.30.952,exp,2021.1.4,59.98541154855925,
24,0,24,0,,,,,,,,,,,,,,,565.0145666999742,None,LMR,images/OBJ_65.png,images/OBJ_166.png,images/OBJ_160.png,566.558236599958,568.0676895999932,568.5503893999849,570.0499559000018,570.5497997999773,None,566.5675261399825,None,568.5504227599653,None,570.5497807599662,None,572.0493834000081,None,same,RML,573.5841001999797,575.0990084999939,575.5817206999636,577.0812182999798,577.581100899959,None,573.5820701799995,None,575.5817227599968,None,577.5815751599788,None,579.0806546999956,None,1,['leftCL'],580.0803779999842,None,580.0803779999842,None,580.0803779999842,None,580.0803779999842,None,580.0803779999842,None,-0.1943359375,-0.353515625,1,0,0,0.39999940001871437,leftCL,0.016322359966579825,None,580.4802975599945,None,,,,,,,,,,,,,,,,,,,,,,,,,,,,,,,,,,,,,,,,,,,OE1000,2023-10-10_09h47.30.952,exp,2021.1.4,59.98541154855925,
,,,,,,,,,,,,,,,,,,,,,,,,,,,,,,,,,,,,,,,,,,,,,,,,,,,,,,,,,,,,,,,,,,,,,,,,,,,,,25,580.9836149999755,None,None,None,q,531.489003500028,None,None,,,,,,,,,,,,,,,,,,,,,,,,,,,,,,,,,,OE1000,2023-10-10_09h47.30.952,exp,2021.1.4,59.98541154855925,
,,,,0,0,0,0,,,,,,,,,,,,,,,,,,,,,,,,,,,,,,,,,,,,,,,,,,,,,,,,,,,,,,,,,,,,,,,,,,,,693.431267059996,None,,,,,,,,,,old,686.4402110999799,None,686.4496671199565,None,687.9490332999849,None,1,688.9487442999962,None,689.9318206000025,None,689.9318206000025,None,689.9318206000025,None,689.9318206000025,None,689.9318206000025,None,689.9318206000025,None,0.0087890625,-0.3232421875,1,0,0,third_right,0.9990192599943839,None,,,,OE1000,2023-10-10_09h47.30.952,exp,2021.1.4,59.98541154855925,
,,,,1,0,1,0,,,,,,,,,,,,,,,,,,,,,,,,,,,,,,,,,,,,,,,,,,,,,,,,,,,,,,,,,,,,,,,,,,,,698.3631476599897,None,,,,,,,,,,old,694.0977739999653,None,694.0975067599269,None,695.596809300012,None,2,696.5965605999809,None,697.562899600016,None,697.562899600016,None,697.562899600016,None,697.562899600016,None,697.562899600016,None,697.562899600016,None,0.0185546875,-0.1240234375,1,0,0,second_middle,0.999159460014198,None,,,,OE1000,2023-10-10_09h47.30.952,exp,2021.1.4,59.98541154855925,
,,,,2,0,2,0,,,,,,,,,,,,,,,,,,,,,,,,,,,,,,,,,,,,,,,,,,,,,,,,,,,,,,,,,,,,,,,,,,,,703.9277312599646,None,,,,,,,,,,old,699.0392775000073,None,699.0455167199368,None,700.5454288999899,None,3,701.5451377999852,None,702.5115291000111,None,702.5115291000111,None,702.5115291000111,None,702.5115291000111,None,702.5115291000111,None,702.5115291000111,None,0.0126953125,0.060546875,1,0,0,first_left,0.9991173600428738,None,,,,OE1000,2023-10-10_09h47.30.952,exp,2021.1.4,59.98541154855925,
,,,,3,0,3,0,,,,,,,,,,,,,,,,,,,,,,,,,,,,,,,,,,,,,,,,,,,,,,,,,,,,,,,,,,,,,,,,,,,,708.5263871600094,None,,,,,,,,,,old,704.5961823000107,None,704.5944505599385,None,706.1104124999838,None,4,707.1106434999965,None,708.0770155999926,None,708.0770155999926,None,708.0770155999926,None,708.0770155999926,None,708.0770155999926,None,708.0770155999926,None,0.0009765625,0.0498046875,1,0,0,first_left,0.9991141600185074,None,,,,OE1000,2023-10-10_09h47.30.952,exp,2021.1.4,59.98541154855925,
,,,,4,0,4,0,,,,,,,,,,,,,,,,,,,,,,,,,,,,,,,,,,,,,,,,,,,,,,,,,,,,,,,,,,,,,,,,,,,,714.3248508599994,None,,,,,,,,,,old,709.1890920000151,None,709.1930915599281,None,710.6924967999803,None,5,711.6926252999692,None,712.6585941999801,None,712.6585941999801,None,712.6585941999801,None,712.6585941999801,None,712.6585941999801,None,712.6585941999801,None,0.0126953125,-0.2705078125,1,0,0,third_right,0.9992591599584557,None,,,,OE1000,2023-10-10_09h47.30.952,exp,2021.1.4,59.98541154855925,
,,,,5,0,5,0,,,,,,,,,,,,,,,,,,,,,,,,,,,,,,,,,,,,,,,,,,,,,,,,,,,,,,,,,,,,,,,,,,,,719.5398646599555,None,,,,,,,,,,old,714.988282300008,None,714.9914056599431,None,716.4912505999673,None,6,717.4904788999702,None,718.457361800014,None,718.457361800014,None,718.457361800014,None,718.457361800014,None,718.457361800014,None,718.457361800014,None,0.06640625,-0.2490234375,1,0,0,third_right,0.9996153599931858,None,,,,OE1000,2023-10-10_09h47.30.952,exp,2021.1.4,59.98541154855925,
,,,,6,0,6,0,,,,,,,,,,,,,,,,,,,,,,,,,,,,,,,,,,,,,,,,,,,,,,,,,,,,,,,,,,,,,,,,,,,,724.2551832599623,None,,,,,,,,,,old,720.200881399971,None,720.2060922599688,None,721.705911499972,None,7,722.7061280999915,None,723.6886367999832,None,723.6886367999832,None,723.6886367999832,None,723.6886367999832,None,723.6886367999832,None,723.6886367999832,None,0.0361328125,-0.23046875,1,0,0,third_right,0.9994592599687167,None,,,,OE1000,2023-10-10_09h47.30.952,exp,2021.1.4,59.98541154855925,
,,,,7,0,7,0,,,,,,,,,,,,,,,,,,,,,,,,,,,,,,,,,,,,,,,,,,,,,,,,,,,,,,,,,,,,,,,,,,,,729.2042432599759,None,,,,,,,,,,old,724.9256695999647,None,724.9218887599476,None,726.4378992000129,None,8,727.437579099962,None,728.4044267999707,None,728.4044267999707,None,728.4044267999707,None,728.4044267999707,None,728.4044267999707,None,728.4044267999707,None,0.0146484375,-0.0732421875,1,0,0,second_middle,0.9995436599710956,None,,,,OE1000,2023-10-10_09h47.30.952,exp,2021.1.4,59.98541154855925,
,,,,8,0,8,0,,,,,,,,,,,,,,,,,,,,,,,,,,,,,,,,,,,,,,,,,,,,,,,,,,,,,,,,,,,,,,,,,,,,733.8528449600038,None,,,,,,,,,,old,729.8653958999785,None,729.8698981599358,None,731.3702584999846,None,9,732.3699538999936,None,733.3363362000091,None,733.3363362000091,None,733.3363362000091,None,733.3363362000091,None,733.3363362000091,None,733.3363362000091,None,0.0185546875,-0.0810546875,1,0,0,second_middle,0.9996515599777922,None,,,,OE1000,2023-10-10_09h47.30.952,exp,2021.1.4,59.98541154855925,
,,,,9,0,9,0,,,,,,,,,,,,,,,,,,,,,,,,,,,,,,,,,,,,,,,,,,,,,,,,,,,,,,,,,,,,,,,,,,,,738.5014968600066,None,,,,,,,,,,old,734.5197355999844,None,734.5186922599736,None,736.0351007999852,None,10,737.0347560999799,None,738.0011783000082,None,738.0011783000082,None,738.0011783000082,None,738.0011783000082,None,738.0011783000082,None,738.0011783000082,None,0.01953125,0.04296875,1,0,0,first_left,0.9991966599482112,None,,,,OE1000,2023-10-10_09h47.30.952,exp,2021.1.4,59.98541154855925,
,,,,10,0,10,0,,,,,,,,,,,,,,,,,,,,,,,,,,,,,,,,,,,,,,,,,,,,,,,,,,,,,,,,,,,,,,,,,,,,743.2501257599855,None,,,,,,,,,,old,739.1713473999989,None,739.1677187599765,None,740.6837357999757,None,11,741.683917599963,None,742.6502853999846,None,742.6502853999846,None,742.6502853999846,None,742.6502853999846,None,742.6502853999846,None,742.6502853999846,None,0.015625,-0.2421875,1,0,0,third_right,0.9990623600315303,None,,,,OE1000,2023-10-10_09h47.30.952,exp,2021.1.4,59.98541154855925,
,,,,11,0,11,0,,,,,,,,,,,,,,,,,,,,,,,,,,,,,,,,,,,,,,,,,,,,,,,,,,,,,,,,,,,,,,,,,,,,748.1987048600043,None,,,,,,,,,,old,743.9206400999683,None,743.9163446599326,None,745.4323585999664,None,12,746.4325332000153,None,747.3989648999996,None,747.3989648999996,None,747.3989648999996,None,747.3989648999996,None,747.3989648999996,None,747.3989648999996,None,0.0146484375,-0.2421875,1,0,0,third_right,0.9997315600048751,None,,,,OE1000,2023-10-10_09h47.30.952,exp,2021.1.4,59.98541154855925,
,,,,12,0,12,0,,,,,,,,,,,,,,,,,,,,,,,,,,,,,,,,,,,,,,,,,,,,,,,,,,,,,,,,,,,,,,,,,,,,752.730247559963,None,,,,,,,,,,old,748.8708574000048,None,748.8814286199747,None,750.3809234999935,None,13,751.3806374999695,None,752.3474826999591,None,752.3474826999591,None,752.3474826999591,None,752.3474826999591,None,752.3474826999591,None,752.3474826999591,None,0.0224609375,-0.10546875,1,0,0,second_middle,0.9996113599627279,None,,,,OE1000,2023-10-10_09h47.30.952,exp,2021.1.4,59.98541154855925,
,,,,13,0,13,0,,,,,,,,,,,,,,,,,,,,,,,,,,,,,,,,,,,,,,,,,,,,,,,,,,,,,,,,,,,,,,,,,,,,757.2455833599728,None,,,,,,,,,,old,753.3875055999961,None,753.396900559956,None,754.8966171999928,None,14,755.895960599999,None,756.87901959999,None,756.87901959999,None,756.87901959999,None,756.87901959999,None,756.87901959999,None,756.87901959999,None,0.0224609375,-0.10546875,1,0,0,second_middle,1.0152791599975899,None,,,,OE1000,2023-10-10_09h47.30.952,exp,2021.1.4,59.98541154855925,
,,,,14,0,14,0,,,,,,,,,,,,,,,,,,,,,,,,,,,,,,,,,,,,,,,,,,,,,,,,,,,,,,,,,,,,,,,,,,,,761.6776427599892,None,,,,,,,,,,old,757.9081551000127,None,757.9122682599758,None,759.4116165000014,None,15,760.4117296999902,None,761.378270199988,None,761.378270199988,None,761.378270199988,None,761.378270199988,None,761.378270199988,None,761.378270199988,None,0.01171875,-0.09765625,1,0,0,second_middle,0.9996162600000389,None,,,,OE1000,2023-10-10_09h47.30.952,exp,2021.1.4,59.98541154855925,
,,,,15,0,15,0,,,,,,,,,,,,,,,,,,,,,,,,,,,,,,,,,,,,,,,,,,,,,,,,,,,,,,,,,,,,,,,,,,,,766.2262803599646,None,,,,,,,,,,old,762.3541845,None,762.3609705199603,None,763.8603259999654,None,16,764.8605344999814,None,765.8264071000158,None,765.8264071000158,None,765.8264071000158,None,765.8264071000158,None,765.8264071000158,None,765.8264071000158,None,0.0078125,-0.25,1,0,0,third_right,0.9991414599935524,None,,,,OE1000,2023-10-10_09h47.30.952,exp,2021.1.4,59.98541154855925,
,,,,16,0,16,0,,,,,,,,,,,,,,,,,,,,,,,,,,,,,,,,,,,,,,,,,,,,,,,,,,,,,,,,,,,,,,,,,,,,770.6921518599905,None,,,,,,,,,,old,766.8926806999953,None,766.8925076599756,None,768.3923504999839,None,17,769.3920687999926,None,770.3584660000051,None,770.3584660000051,None,770.3584660000051,None,770.3584660000051,None,770.3584660000051,None,770.3584660000051,None,-0.001953125,-0.095703125,1,0,0,second_middle,0.9991566599928774,None,,,,OE1000,2023-10-10_09h47.30.952,exp,2021.1.4,59.98541154855925,
,,,,17,0,17,0,,,,,,,,,,,,,,,,,,,,,,,,,,,,,,,,,,,,,,,,,,,,,,,,,,,,,,,,,,,,,,,,,,,,775.2075422600086,None,,,,,,,,,,old,771.3627061999869,None,771.3578410599788,None,772.8743487999891,None,18,773.8745462999796,None,774.8404509999673,None,774.8404509999673,None,774.8404509999673,None,774.8404509999673,None,774.8404509999673,None,774.8404509999673,None,0.0068359375,-0.0576171875,1,0,0,second_middle,1.0157440599869005,None,,,,OE1000,2023-10-10_09h47.30.952,exp,2021.1.4,59.98541154855925,
,,,,18,0,18,0,,,,,,,,,,,,,,,,,,,,,,,,,,,,,,,,,,,,,,,,,,,,,,,,,,,,,,,,,,,,,,,,,,,,779.7395001599856,None,,,,,,,,,,old,775.8755220999592,None,775.8732269599626,None,777.3902028999873,None,19,778.3899057999952,None,779.3729251999757,None,779.3729251999757,None,779.3729251999757,None,779.3729251999757,None,779.3729251999757,None,779.3729251999757,None,-0.01171875,0.04296875,1,0,0,first_left,0.9990588600048795,None,,,,OE1000,2023-10-10_09h47.30.952,exp,2021.1.4,59.98541154855925,
,,,,19,0,19,0,,,,,,,,,,,,,,,,,,,,,,,,,,,,,,,,,,,,,,,,,,,,,,,,,,,,,,,,,,,,,,,,,,,,784.3710220599954,None,,,,,,,,,,old,780.4011756000109,None,780.4052160599443,None,781.9055417999625,None,20,782.9052902999683,None,783.8712213999825,None,783.8712213999825,None,783.8712213999825,None,783.8712213999825,None,783.8712213999825,None,783.8712213999825,None,-0.0107421875,-0.064453125,1,0,0,second_middle,0.9991001600283198,None,,,,OE1000,2023-10-10_09h47.30.952,exp,2021.1.4,59.98541154855925,
,,,,,,,,0,0,0,0,,,,,784.8709039000096,None,805.4764868000057,None,,images/OBJ_126.png,images/OBJ_173.png,images/OBJ_184.png,807.0226464999723,808.530670600012,809.0138275999925,810.5134623000049,811.0136259999708,None,807.0314902399783,None,809.0138653600064,None,811.0137316599779,None,812.5128893000074,None,same,RML,814.0526497999672,815.5619186999975,816.0451380999875,817.5451821999741,818.0445543999667,None,814.062536039995,None,816.045149059972,None,818.0449086600041,None,819.5441673999885,None,1,['leftCL'],820.5443170999642,None,820.5443170999642,None,820.5443170999642,None,820.5443170999642,None,820.5443170999642,None,-0.1806640625,-0.2529296875,1,0,0,1.3501407000003383,leftCL,0.016255959984846413,None,821.8939467599906,None,1,,,,,,,,,,,,,,,,,,,,,,,,,,,,,,,,,,,,,,,20,images/OBJ_100.png,MRL,OE1000,2023-10-10_09h47.30.952,exp,2021.1.4,59.98541154855925,
,,,,,,,,1,0,1,0,,,,,,,822.5337024999899,None,,images/OBJ_84.png,images/OBJ_139.png,images/OBJ_24.png,824.0895063999924,825.5928396999952,826.075960999995,827.5755126000149,828.0750068000052,None,824.0932272399892,None,826.0760168599721,None,828.0750008599774,None,829.5746015000041,None,diff,MRL,831.1216547999647,832.6236616999959,833.1240131999948,834.6230827000109,835.1229726999882,None,831.124343839963,None,833.1239629599789,None,835.1229551599885,None,836.6225097000133,None,1,['rightCL'],837.6226877999725,None,837.6226877999725,None,837.6226877999725,None,837.6226877999725,None,837.6226877999725,None,0.1328125,-0.3515625,1,0,0,62.74818180000875,rightCL,0.01632895995862782,None,900.370618960011,None,2,,,,,,,,,,,,,,,,,,,,,,,,,,,,,,,,,,,,,,,,,LMR,OE1000,2023-10-10_09h47.30.952,exp,2021.1.4,59.98541154855925,
,,,,,,,,2,0,2,0,,,,,,,901.0145289999782,None,,images/OBJ_151.png,images/OBJ_15.png,images/OBJ_133.png,902.5685633000103,904.0700722999754,904.5694252999965,906.069402699999,906.5688362999936,None,902.5704102399992,None,904.5693933600036,None,906.5687782599765,None,908.0688703999622,None,same,MRL,909.6316090999753,911.1341629999806,911.6173677999759,913.1169714999851,913.6167821999989,None,909.6348495399812,None,911.6173210599867,None,913.6171235599962,None,915.1163585999748,None,1,['leftCL'],916.1161011999939,None,916.1161011999939,None,916.1161011999939,None,916.1161011999939,None,916.1161011999939,None,-0.2470703125,-0.3857421875,1,0,0,0.5164917999645695,leftCL,0.01624475995777175,None,916.6325250599824,None,3,,,,,,,,,,,,,,,,,,,,,,,,,,,,,,,,,,,,,,,,,MRL,OE1000,2023-10-10_09h47.30.952,exp,2021.1.4,59.98541154855925,
,,,,,,,,3,0,3,0,,,,,,,917.2739861999871,None,,images/OBJ_200.png,images/OBJ_208.png,images/OBJ_177.png,918.8229478999856,920.3314872999908,920.8146453999798,922.3142131000059,922.8140567999799,None,918.8323028399842,None,920.8146301599976,None,922.8140502600057,None,924.3136790000135,None,same,MRL,925.8532832000055,927.3632647999912,927.8464854999911,929.3460290000075,929.8459026999772,None,925.8630570399924,None,927.8460070599743,None,929.8453588599863,None,931.3454265999608,None,1,['leftCL'],932.3446418999811,None,932.3446418999811,None,932.3446418999811,None,932.3446418999811,None,932.3446418999811,None,-0.1982421875,-0.2265625,1,0,0,5.0814605000196025,leftCL,0.01633325999137014,None,937.4265127599996,None,4,,,,,,,,,,,,,,,,,,,,,,,,,,,,,,,,,,,,,,,,,LMR,OE1000,2023-10-10_09h47.30.952,exp,2021.1.4,59.98541154855925,
,,,,,,,,4,0,4,0,,,,,,,938.0759870999609,None,,images/OBJ_13.png,images/OBJ_79.png,images/OBJ_147.png,939.6123232999817,941.1254503999953,941.6091465000063,943.1086821999634,943.6085617999779,None,939.6096848799672,None,941.6086413599609,None,943.6080372599594,None,945.1081438999972,None,same,MRL,946.6430797000066,948.1572549999692,948.6399519999977,950.1399644999765,950.6393290999695,None,946.6408133799733,None,948.64040735999,None,950.6398182599863,None,952.1393108000048,None,1,['leftCL'],953.1386335999705,None,953.1386335999705,None,953.1386335999705,None,953.1386335999705,None,953.1386335999705,None,-0.1982421875,-0.2255859375,1,0,0,0.5165960000013001,leftCL,0.01633936003781855,None,953.6551575599646,None,5,,,,,,,,,,,,,,,,,,,,,,,,,,,,,,,,,,,,,,,,,RML,OE1000,2023-10-10_09h47.30.952,exp,2021.1.4,59.98541154855925,
,,,,,,,,5,0,5,0,,,,,,,954.3075967999757,None,,images/OBJ_96.png,images/OBJ_14.png,images/OBJ_50.png,955.8640473000123,957.3712212999817,957.8539391999948,959.3539015999995,959.8536965000094,None,955.8710888399743,None,957.8543823600106,None,959.8538071599963,None,961.3533997999621,None,same,MRL,962.8945645999629,964.4024896000046,964.8857021000003,966.3852654999937,966.8846568000154,None,962.9027095399448,None,964.8851760599704,None,966.8849812600005,None,968.3846195999649,None,1,['leftCL'],969.3844224999775,None,969.3844224999775,None,969.3844224999775,None,969.3844224999775,None,969.3844224999775,None,-0.2021484375,-0.279296875,1,0,0,0.3332514999783598,leftCL,0.016296759946271777,None,969.7171721599938,None,6,,,,,,,,,,,,,,,,,,,,,,,,,,,,,,,,,,,,,,,,,LRM,OE1000,2023-10-10_09h47.30.952,exp,2021.1.4,59.98541154855925,
,,,,,,,,6,0,6,0,,,,,,,970.3591118999757,None,,images/OBJ_142.png,images/OBJ_17.png,images/OBJ_33.png,971.9107014999609,973.4160783999832,973.8992600999773,975.3988366000121,975.8987059000065,None,971.9169003399671,None,973.8992598599929,None,975.8986573600035,None,977.3982536999974,None,same,MRL,978.940178299963,980.4473790999618,980.9305890999967,982.4306046999991,982.9304404999712,None,978.9475578399957,None,980.9305737599556,None,982.9299338599725,None,984.4300092000049,None,1,['leftCL'],985.4293539999635,None,985.4293539999635,None,985.4293539999635,None,985.4293539999635,None,985.4293539999635,None,-0.1767578125,-0.26953125,1,0,0,0.5831210000324063,leftCL,0.01626086002215743,None,986.0124406599847,None,7,,,,,,,,,,,,,,,,,,,,,,,,,,,,,,,,,,,,,,,,,LRM,OE1000,2023-10-10_09h47.30.952,exp,2021.1.4,59.98541154855925,
,,,,,,,,7,0,7,0,,,,,,,986.6566651999601,None,,images/OBJ_22.png,images/OBJ_7.png,images/OBJ_131.png,988.1999470999581,989.7113342999946,990.1945355999633,991.6941353000002,992.1939517999999,None,988.1950976799882,None,990.1949987599568,None,992.1939273600059,None,993.6935339999618,None,diff,MRL,995.2317644999712,996.743095199985,997.2096386000048,998.7087064000079,999.2252650000155,None,995.2429938399815,None,997.2095973599993,None,999.2252107599692,None,1000.7248160999734,None,1,['rightCL'],1001.7249928999809,None,1001.7249928999809,None,1001.7249928999809,None,1001.7249928999809,None,1001.7249928999809,None,0.1357421875,-0.318359375,1,0,0,0.2994825000059791,rightCL,0.016337459965143353,None,1002.024400259956,None,8,,,,,,,,,,,,,,,,,,,,,,,,,,,,,,,,,,,,,,,,,RLM,OE1000,2023-10-10_09h47.30.952,exp,2021.1.4,59.98541154855925,
,,,,,,,,8,0,8,0,,,,,,,1002.6681697999593,None,,images/OBJ_106.png,images/OBJ_40.png,images/OBJ_74.png,1004.2172453000094,1005.7238308999804,1006.2065258999937,1007.706044599996,1008.2059546000091,None,1004.2240989399958,None,1006.2064697599911,None,1008.2059056600032,None,1009.7060036999756,None,same,MRL,1011.2644269999582,1012.7717781999963,1013.2549596999888,1014.7545415000059,1015.254386399989,None,1011.2715474399971,None,1013.2544244600052,None,1015.2539004599734,None,1016.7540098999743,None,1,['leftCL'],1017.753668099991,None,1017.753668099991,None,1017.753668099991,None,1017.753668099991,None,1017.753668099991,None,-0.298828125,-0.3583984375,1,0,0,0.3499508999520913,leftCL,0.01631266000913456,None,1018.1030703599739,None,9,,,,,,,,,,,,,,,,,,,,,,,,,,,,,,,,,,,,,,,,,RML,OE1000,2023-10-10_09h47.30.952,exp,2021.1.4,59.98541154855925,
,,,,,,,,9,0,9,0,,,,,,,1018.7471865999978,None,,images/OBJ_43.png,images/OBJ_10.png,images/OBJ_3.png,1020.2998850999866,1021.8024829999777,1022.3018257999793,1023.8019282000023,1024.3012770999921,None,1020.3023245399469,None,1022.3018349600083,None,1024.3012342599745,None,1025.8008880999987,None,same,MRL,1027.348985699995,1028.8499503000057,1029.349846899975,1030.849313899991,1031.3492155999993,None,1027.3501560399543,None,1029.3497816599615,None,1031.3491968599906,None,1032.8487764999736,None,1,['leftCL'],1033.8485042999964,None,1033.8485042999964,None,1033.8485042999964,None,1033.8485042999964,None,1033.8485042999964,None,-0.2763671875,-0.35546875,1,0,0,0.43277129996567965,leftCL,0.01632455998333171,None,1034.2817149600073,None,10,,,,,,,,,,,,,,,,,,,,,,,,,,,,,,,,,,,,,,,,,LRM,OE1000,2023-10-10_09h47.30.952,exp,2021.1.4,59.98541154855925,
,,,,,,,,10,0,10,0,,,,,,,1034.9305181999807,None,,images/OBJ_57.png,images/OBJ_144.png,images/OBJ_189.png,1036.474293700012,1037.9811161999824,1038.464352399984,1039.963860799966,1040.4632536999998,None,1036.4814714399633,None,1038.4638078599878,None,1040.4637382599817,None,1041.9628206999623,None,same,MRL,1043.5168689999846,1045.0285870999796,1045.5117706999881,1047.0118057999643,1047.5112585999887,None,1043.5126319399803,None,1045.5117561600114,None,1047.5111756599567,None,1049.0107623999938,None,1,['leftCL'],1050.0109473000048,None,1050.0109473000048,None,1050.0109473000048,None,1050.0109473000048,None,1050.0109473000048,None,-0.2294921875,-0.3798828125,1,0,0,0.48329619999276474,leftCL,0.016326759941875935,None,1050.4941441599572,None,11,,,,,,,,,,,,,,,,,,,,,,,,,,,,,,,,,,,,,,,,,LMR,OE1000,2023-10-10_09h47.30.952,exp,2021.1.4,59.98541154855925,
,,,,,,,,11,0,11,0,,,,,,,1051.1402152999653,None,,images/OBJ_29.png,images/OBJ_100.png,images/OBJ_196.png,1052.6879191999906,1054.19305110001,1054.67627419997,1056.1924831999931,1056.6751221999875,None,1052.6929269399495,None,1054.6756975599624,None,1056.675656760001,None,1058.1747229999746,None,same,MRL,1059.7186568999896,1061.224355000013,1061.7075551999733,1063.206563899992,1063.7064766999683,None,1059.724110039964,None,1061.7070378600097,None,1063.7064476599976,None,1065.2059901999892,None,1,['leftCL'],1066.2057583999704,None,1066.2057583999704,None,1066.2057583999704,None,1066.2057583999704,None,1066.2057583999704,None,-0.2294921875,-0.3798828125,1,0,0,0.3332683999906294,leftCL,0.01629806001437828,None,1066.5389772600088,None,12,,,,,,,,,,,,,,,,,,,,,,,,,,,,,,,,,,,,,,,,,RML,OE1000,2023-10-10_09h47.30.952,exp,2021.1.4,59.98541154855925,
,,,,,,,,12,0,12,0,,,,,,,1067.1920739999623,None,,images/OBJ_113.png,images/OBJ_70.png,images/OBJ_137.png,1068.7442904000054,1070.2549675999908,1070.7377514999826,1072.2373045000131,1072.7371467999765,None,1068.7549351399882,None,1070.737710759981,None,1072.7371070599825,None,1074.2367390000145,None,same,MRL,1075.7758035999723,1077.2858997000149,1077.7690517000156,1079.268597199989,1079.768501799961,None,1075.7866173399614,None,1077.7690180600098,None,1079.7684652599914,None,1081.2680419000098,None,1,['leftCL'],1082.2677547999774,None,1082.2677547999774,None,1082.2677547999774,None,1082.2677547999774,None,1082.2677547999774,None,-0.1767578125,-0.345703125,1,0,0,0.39989000000059605,leftCL,0.016261660028249025,None,1082.667645660002,None,13,,,,,,,,,,,,,,,,,,,,,,,,,,,,,,,,,,,,,,,,,RML,OE1000,2023-10-10_09h47.30.952,exp,2021.1.4,59.98541154855925,
,,,,,,,,13,0,13,0,,,,,,,1083.3137348999735,None,,images/OBJ_25.png,images/OBJ_32.png,images/OBJ_175.png,1084.8542042999761,1086.3670406999881,1086.8502533999854,1088.3498007999733,1088.8496867999784,None,1084.8502823799674,None,1086.8497464599845,None,1088.8496381599748,None,1090.3487488999963,None,same,MRL,1091.8865917999647,1093.3983320000116,1093.881053399993,1095.3806382999755,1095.8804870999884,None,1091.8819375799678,None,1093.8815052599589,None,1095.8804550599948,None,1097.3805193000007,None,1,['leftCL'],1098.3802620999631,None,1098.3802620999631,None,1098.3802620999631,None,1098.3802620999631,None,1098.3802620999631,None,-0.1767578125,-0.345703125,1,0,0,0.33285810000961646,leftCL,0.016329460020642728,None,1098.712980059971,None,14,,,,,,,,,,,,,,,,,,,,,,,,,,,,,,,,,,,,,,,,,RLM,OE1000,2023-10-10_09h47.30.952,exp,2021.1.4,59.98541154855925,
,,,,,,,,14,0,14,0,,,,,,,1099.359781600011,None,,images/OBJ_161.png,images/OBJ_188.png,images/OBJ_54.png,1100.9082934999606,1102.411933699972,1102.8951123000006,1104.3946701000095,1104.894997299998,None,1100.9122875400005,None,1102.8955583599804,None,1104.894455559965,None,1106.3940756999655,None,diff,LMR,1107.9387007000041,1109.443214799976,1109.926398199983,1111.4263055999763,1111.9262780999998,None,1107.9433282399784,None,1109.9263564599737,None,1111.9257499600121,None,1113.4253709999612,None,1,['rightCL'],1114.4250791000086,None,1114.4250791000086,None,1114.4250791000086,None,1114.4250791000086,None,1114.4250791000086,None,0.1337890625,-0.35546875,1,0,0,0.4832627000287175,rightCL,0.01629036001395434,None,1114.9082691599674,None,15,,,,,,,,,,,,,,,,,,,,,,,,,,,,,,,,,,,,,,,,,MLR,OE1000,2023-10-10_09h47.30.952,exp,2021.1.4,59.98541154855925,
,,,,,,,,15,0,15,0,,,,,,,1115.5527521999902,None,,images/OBJ_21.png,images/OBJ_121.png,images/OBJ_182.png,1117.1044074000092,1118.6072111999965,1119.0908781999606,1120.5899121999973,1121.090179699997,None,1117.1075638399577,None,1119.090869759972,None,1121.0901640600118,None,1122.5898500999901,None,diff,RLM,1124.1356778999907,1125.6389554999769,1126.1222279999638,1127.6212380999932,1128.1210881000152,None,1124.1392592399732,None,1126.1216646599992,None,1128.1211020599644,None,1129.6206786999828,None,1,['rightCL'],1130.6208690999774,None,1130.6208690999774,None,1130.6208690999774,None,1130.6208690999774,None,1130.6208690999774,None,0.146484375,-0.3388671875,1,0,0,0.4161640999955125,rightCL,0.016335560008883476,None,1131.0369641599887,None,16,,,,,,,,,,,,,,,,,,,,,,,,,,,,,,,,,,,,,,,,,LMR,OE1000,2023-10-10_09h47.30.952,exp,2021.1.4,59.98541154855925,
,,,,,,,,16,0,16,0,,,,,,,1131.6816304000095,None,,images/OBJ_99.png,images/OBJ_136.png,images/OBJ_47.png,1133.2337179000024,1134.7363149999874,1135.219566099986,1136.7190655000159,1137.2355247999658,None,1133.2366718399805,None,1135.2195637599857,None,1137.23512316001,None,1138.7346897000098,None,same,RLM,1140.282096799987,1141.783782100014,1142.2836378999637,1143.7837341999984,1144.2830535999965,None,1140.284514439956,None,1142.283595160005,None,1144.283033059974,None,1145.7831244000117,None,1,['leftCL'],1146.782375300012,None,1146.782375300012,None,1146.782375300012,None,1146.782375300012,None,1146.782375300012,None,-0.15234375,-0.3681640625,1,0,0,0.5665040999883786,leftCL,0.01631695998366922,None,1147.3488231599972,None,17,,,,,,,,,,,,,,,,,,,,,,,,,,,,,,,,,,,,,,,,,LMR,OE1000,2023-10-10_09h47.30.952,exp,2021.1.4,59.98541154855925,
,,,,,,,,17,0,17,0,,,,,,,1147.996327699977,None,,images/OBJ_2.png,images/OBJ_202.png,images/OBJ_72.png,1149.5357259999728,1151.0478034999687,1151.5314176999964,1153.0310219000094,1153.530872399977,None,1149.531965779973,None,1151.5309545599798,None,1153.530835560005,None,1155.0299457999645,None,same,RLM,1156.565338000015,1158.079049299995,1158.5622485000058,1160.0622786000022,1160.561659400002,None,1156.5626600799908,None,1158.5626903600119,None,1160.5620603599878,None,1162.0617429999984,None,1,['leftCL'],1163.0609632999985,None,1163.0609632999985,None,1163.0609632999985,None,1163.0609632999985,None,1163.0609632999985,None,-0.2587890625,-0.35546875,1,0,0,0.3337595000048168,leftCL,0.016322759969625622,None,1163.3946673600062,None,18,,,,,,,,,,,,,,,,,,,,,,,,,,,,,,,,,,,,,,,,,RML,OE1000,2023-10-10_09h47.30.952,exp,2021.1.4,59.98541154855925,
,,,,,,,,18,0,18,0,,,,,,,1164.0436488999985,None,,images/OBJ_46.png,images/OBJ_204.png,images/OBJ_19.png,1165.5906675999868,1167.0931057999842,1167.576304599992,1169.0763486999786,1169.5929115999606,None,1165.5939424399637,None,1167.57627145999,None,1169.5923508599576,None,1171.0920074000023,None,diff,LMR,1172.637818999996,1174.1410653999774,1174.6242311999667,1176.1243080999702,1176.624207899964,None,1172.6413399399842,None,1174.6242344600091,None,1176.6241415600002,None,1178.1232264999999,None,1,['rightCL'],1179.1229522000067,None,1179.1229522000067,None,1179.1229522000067,None,1179.1229522000067,None,1179.1229522000067,None,0.138671875,-0.375,1,0,0,0.2995241000317037,rightCL,0.01632435998180881,None,1179.42288306001,None,19,,,,,,,,,,,,,,,,,,,,,,,,,,,,,,,,,,,,,,,,,RML,OE1000,2023-10-10_09h47.30.952,exp,2021.1.4,59.98541154855925,
,,,,,,,,19,0,19,0,,,,,,,1180.0662939999602,None,,images/OBJ_153.png,images/OBJ_178.png,images/OBJ_141.png,1181.614683599968,1183.1218082999694,1183.604932599992,1185.1050076999818,1185.6044052999932,None,1181.6226576399874,None,1183.6049241600035,None,1185.6048657599663,None,1187.103985099995,None,same,LMR,1188.6459674999933,1190.153541799984,1190.6366627999814,1192.1363055999973,1192.6361921000062,None,1188.6533866399784,None,1190.63671776001,None,1192.6361501599954,None,1194.1352728999918,None,1,['leftCL'],1195.135432799987,None,1195.135432799987,None,1195.135432799987,None,1195.135432799987,None,1195.135432799987,None,-0.2021484375,-0.3837890625,1,0,0,0.5165886000031605,leftCL,0.01632756000617519,None,1195.6515157599993,None,20,,,,,,,,,,,,,,,,,,,,,,,,,,,,,,,,,,,,,,,,,RML,OE1000,2023-10-10_09h47.30.952,exp,2021.1.4,59.98541154855925,
,,,,,,,,20,0,20,0,,,,,,,1196.3079022999736,None,,images/OBJ_164.png,images/OBJ_110.png,images/OBJ_138.png,1197.8512933999882,1199.350868700014,1199.8502347999602,1201.3503211999778,1201.8501490000053,None,1197.851247879985,None,1199.8502263599717,None,1201.850117159955,None,1203.3497260999866,None,diff,MLR,1204.8816405999823,1206.3817014999804,1206.8815427999943,1208.381164899969,1208.8814279999933,None,1204.8824345799687,None,1206.881518560002,None,1208.8814425600053,None,1210.3805631999858,None,1,['rightCL'],1211.3802532000118,None,1211.3802532000118,None,1211.3802532000118,None,1211.3802532000118,None,1211.3802532000118,None,0.126953125,-0.3603515625,1,0,0,0.31660960003500804,rightCL,0.016329659963957965,None,1211.6967916599883,None,21,,,,,,,,,,,,,,,,,,,,,,,,,,,,,,,,,,,,,,,,,LMR,OE1000,2023-10-10_09h47.30.952,exp,2021.1.4,59.98541154855925,
,,,,,,,,21,0,21,0,,,,,,,1212.3464532999787,None,,images/OBJ_5.png,images/OBJ_187.png,images/OBJ_63.png,1213.8806821999606,1215.3957202999736,1215.8794292999664,1217.3784679999808,1217.8783177000005,None,1213.8794229799707,None,1215.8788789599844,None,1217.8783126599797,None,1219.3778665999998,None,same,MLR,1220.9120434999932,1222.4270279000048,1222.9107329999679,1224.409760999959,1224.9096131999977,None,1220.9112810800027,None,1222.9101720599633,None,1224.9096183599963,None,1226.4092212999822,None,1,['leftCL'],1227.4089073999785,None,1227.4089073999785,None,1227.4089073999785,None,1227.4089073999785,None,1227.4089073999785,None,-0.1396484375,-0.3564453125,1,0,0,0.533742799947504,leftCL,0.016301659983582795,None,1227.9425865599828,None,22,,,,,,,,,,,,,,,,,,,,,,,,,,,,,,,,,,,,,,,,,LMR,OE1000,2023-10-10_09h47.30.952,exp,2021.1.4,59.98541154855925,
,,,,,,,,22,0,22,0,,,,,,,1228.5871309000067,None,,images/OBJ_36.png,images/OBJ_172.png,images/OBJ_130.png,1230.1270293999696,1231.6410004000063,1232.1242486999836,1233.6237673999858,1234.1236297999858,None,1230.1247898799659,None,1232.1246994599992,None,1234.1237000599563,None,1235.6232203000109,None,same,MLR,1237.159992699977,1238.6723104999983,1239.1555260999594,1240.6550662000082,1241.1549060000107,None,1237.1564115800022,None,1239.155971959996,None,1241.1554109599733,None,1242.654496699979,None,1,['leftCL'],1243.6542472,None,1243.6542472,None,1243.6542472,None,1243.6542472,None,1243.6542472,None,-0.1748046875,-0.3662109375,1,0,0,0.4832229999592528,leftCL,0.016312460007611662,None,1244.1373591600045,None,23,,,,,,,,,,,,,,,,,,,,,,,,,,,,,,,,,,,,,,,,,LMR,OE1000,2023-10-10_09h47.30.952,exp,2021.1.4,59.98541154855925,
,,,,,,,,23,0,23,0,,,,,,,1244.7861242999788,None,,images/OBJ_103.png,images/OBJ_48.png,images/OBJ_73.png,1246.326250299986,1247.8362980000093,1248.319492599985,1249.8195634000003,1250.3193865999929,None,1246.336682739982,None,1248.319471459958,None,1250.318901659985,None,1251.818954999966,None,same,MLR,1253.3563480000012,1254.8680853999685,1255.350796899991,1256.8508367000031,1257.35063359997,None,1253.351641179953,None,1255.3507842599706,None,1257.3501873599657,None,1258.8497909000143,None,1,['leftCL'],1259.849506700004,None,1259.849506700004,None,1259.849506700004,None,1259.849506700004,None,1259.849506700004,None,-0.173828125,-0.3603515625,1,0,0,0.3166314999689348,leftCL,0.016322159965056926,None,1260.1660699599947,None,24,,,,,,,,,,,,,,,,,,,,,,,,,,,,,,,,,,,,,,,,,RML,OE1000,2023-10-10_09h47.30.952,exp,2021.1.4,59.98541154855925,
,,,,,,,,24,0,24,0,,,,,,,1260.8102172999643,None,,images/OBJ_65.png,images/OBJ_166.png,images/OBJ_160.png,1262.3508115999866,1263.8654554999666,1264.3486609999673,1265.8478198999655,1266.3475962000084,None,1262.3486691799656,None,1264.3480957599882,None,1266.3480955599866,None,1267.847175700008,None,same,MLR,1269.3808447999763,1270.8800887999823,1271.3799397000112,1272.8790143000078,1273.3788956999779,None,1269.3798212799768,None,1271.3794204599749,None,1273.378822759964,None,1274.8789634999703,None,1,['leftCL'],1275.878117699991,None,1275.878117699991,None,1275.878117699991,None,1275.878117699991,None,1275.878117699991,None,-0.1591796875,-0.3876953125,1,0,0,0.2833103000302799,leftCL,0.016329859965480864,None,1276.1613802599663,None,25,,,,,,,,,,,,,,,,,,,,,,,,,,,,,,,,,,,,,,,,,RLM,OE1000,2023-10-10_09h47.30.952,exp,2021.1.4,59.98541154855925,
,,,,,,,,,,,,,,,,,,,,,,,,,,,,,,,,,,,,,,,,,,,,,,,,,,,,,,,,,,,,,,,,,,,,,,,,,,,,,25,1276.6674534999765,None,None,None,q,1161.1127131000394,None,None,,,,,,,,,,,,,,,,,,,,,,,,,,,,,,,,,,OE1000,2023-10-10_09h47.30.952,exp,2021.1.4,59.98541154855925,
,,,,,,,,,,,,,,,,,,,,,,,,,,,,,,,,,,,,,,,,,,,,,,,,,,,,,,,,,,,,,,,,,,,,,,,,,,,,,,,,,,,,,,old,,,,,,,,,,,,,,,,,,,,,,,,,,,,,,,,,,,,,,
